Time,Timestamp,Counter,Interpolated,Accelerometer X,Accelerometer Y,Accelerometer Z,Magnetometer X,Magnetometer Y,Magnetometer Z,Quaternion 0,Quaternion 1,Quaternion 2,Quaternion 3
1722054287.7574,2024-07-26 21:24:47.757,19,false,0.447485,-0.304626,0.580994,0.607788,0.883314,-0.432868,-0.135622,-0.045443,0.001682,0.054993
1722054287.7887,2024-07-26 21:24:47.788,20,false,0.447409,-0.304626,0.581116,0.607727,0.883314,-0.432868,-0.135622,-0.045391,0.001685,0.055024
1722054287.8199,2024-07-26 21:24:47.819,21,false,0.447409,-0.304626,0.581116,0.607727,0.889662,-0.444099,-0.141482,-0.045393,0.001614,0.0551
1722054287.8512,2024-07-26 21:24:47.851,22,false,0.447281,-0.304688,0.581055,0.607849,0.885267,-0.427008,-0.137087,-0.045395,0.001489,0.055108
1722054287.8824,2024-07-26 21:24:47.882,23,false,0.447156,-0.304871,0.581055,0.607849,0.885267,-0.427008,-0.137087,-0.045323,0.001548,0.05509
1722054287.9137,2024-07-26 21:24:47.913,24,false,0.447156,-0.304993,0.581055,0.607788,0.89015,-0.438239,-0.136599,-0.045332,0.001552,0.055001
1722054287.9449,2024-07-26 21:24:47.944,25,false,0.447356,-0.304932,0.580933,0.607788,0.880873,-0.432868,-0.137575,-0.04534,0.001616,0.055128
1722054287.9762,2024-07-26 21:24:47.976,26,false,0.447401,-0.304993,0.580994,0.607666,0.880873,-0.432868,-0.137575,-0.045347,0.001674,0.055243
1722054288.0074,2024-07-26 21:24:48.007,27,false,0.44728,-0.305176,0.581055,0.607605,0.887221,-0.441169,-0.139528,-0.045475,0.001641,0.055114
1722054288.0387,2024-07-26 21:24:48.038,28,false,0.447121,-0.305176,0.581177,0.607605,0.886732,-0.431403,-0.137087,-0.045518,0.001587,0.055157
1722054288.0699,2024-07-26 21:24:48.069,29,false,0.447,-0.305237,0.581238,0.607605,0.882338,-0.426032,-0.137087,-0.045446,0.001648,0.055159
1722054288.1012,2024-07-26 21:24:48.101,30,false,0.447163,-0.305237,0.581177,0.607544,0.879896,-0.439216,-0.137575,-0.04543,0.001654,0.055112
1722054288.1324,2024-07-26 21:24:48.132,31,false,0.44708,-0.305115,0.581177,0.607666,0.883803,-0.431891,-0.134157,-0.045367,0.001623,0.055058
1722054288.1637,2024-07-26 21:24:48.163,0,false,0.447072,-0.305237,0.581055,0.607727,0.883803,-0.431891,-0.134157,-0.045298,0.001607,0.055021
1722054288.1949,2024-07-26 21:24:48.194,1,false,0.447227,-0.305359,0.580872,0.607727,0.89015,-0.429938,-0.132692,-0.045322,0.001617,0.054987
1722054288.2262,2024-07-26 21:24:48.226,2,false,0.447223,-0.305481,0.580811,0.607727,0.883803,-0.427985,-0.126345,-0.045343,0.001602,0.054957
1722054288.2574,2024-07-26 21:24:48.257,3,false,0.447302,-0.305603,0.58075,0.607666,0.883803,-0.427985,-0.126345,-0.045362,0.001588,0.054931
1722054288.2887,2024-07-26 21:24:48.288,4,false,0.447218,-0.305725,0.58075,0.607666,0.884291,-0.427497,-0.137575,-0.045318,0.001637,0.054967
1722054288.3199,2024-07-26 21:24:48.319,5,false,0.447297,-0.305847,0.580688,0.607605,0.888197,-0.428962,-0.146853,-0.045315,0.001559,0.055025
1722054288.3512,2024-07-26 21:24:48.351,6,false,0.447417,-0.305908,0.580627,0.607544,0.888197,-0.428962,-0.146853,-0.045312,0.001488,0.055077
1722054288.3824,2024-07-26 21:24:48.382,7,false,0.447537,-0.306091,0.580566,0.607422,0.884779,-0.42652,-0.137087,-0.045335,0.001449,0.055123
1722054288.4137,2024-07-26 21:24:48.413,8,false,0.447537,-0.306091,0.580566,0.607422,0.879896,-0.426032,-0.138552,-0.045391,0.001512,0.05508
1722054288.4449,2024-07-26 21:24:48.444,9,false,0.447417,-0.305908,0.580627,0.607544,0.884291,-0.427497,-0.137575,-0.04543,0.001495,0.055114
1722054288.4762,2024-07-26 21:24:48.476,10,false,0.447574,-0.306274,0.580505,0.607361,0.879408,-0.426032,-0.143923,-0.045464,0.00148,0.055145
1722054288.5074,2024-07-26 21:24:48.507,11,false,0.447815,-0.306274,0.580383,0.6073,0.897475,-0.427008,-0.13904,-0.045618,0.001527,0.055148
1722054288.5387,2024-07-26 21:24:48.538,12,false,0.447649,-0.306396,0.580383,0.607361,0.893568,-0.433356,-0.141482,-0.045597,0.001631,0.055175
1722054288.5699,2024-07-26 21:24:48.569,13,false,0.447573,-0.306396,0.580505,0.6073,0.893568,-0.433356,-0.141482,-0.045591,0.001639,0.055102
1722054288.6012,2024-07-26 21:24:48.601,14,false,0.447532,-0.306335,0.580505,0.607361,0.888685,-0.431403,-0.12488,-0.045536,0.00167,0.055073
1722054288.6324,2024-07-26 21:24:48.632,15,false,0.447615,-0.306335,0.580505,0.6073,0.883803,-0.440192,-0.135622,-0.045621,0.001601,0.055047
1722054288.6637,2024-07-26 21:24:48.663,16,false,0.447772,-0.306458,0.580383,0.607239,0.883803,-0.440192,-0.135622,-0.045698,0.001538,0.055023
1722054288.6949,2024-07-26 21:24:48.694,17,false,0.447806,-0.306519,0.580261,0.6073,0.89308,-0.429938,-0.133181,-0.045718,0.001555,0.055112
1722054288.7262,2024-07-26 21:24:48.726,18,false,0.447843,-0.30658,0.5802,0.6073,0.896986,-0.419684,-0.151736,-0.045455,0.001546,0.055069
1722054288.7574,2024-07-26 21:24:48.757,19,false,0.448171,-0.30658,0.580139,0.607117,0.896986,-0.419684,-0.151736,-0.045451,0.001526,0.055019
1722054288.7887,2024-07-26 21:24:48.788,20,false,0.448208,-0.306641,0.580078,0.607117,0.896986,-0.419684,-0.151736,-0.045447,0.001508,0.054974
1722054288.8199,2024-07-26 21:24:48.819,21,false,0.448125,-0.306641,0.580078,0.607178,0.884779,-0.425055,-0.126345,-0.04548,0.001577,0.054933
1722054288.8512,2024-07-26 21:24:48.851,22,false,0.448092,-0.306458,0.5802,0.607178,0.877455,-0.422614,-0.140993,-0.045473,0.001517,0.05486
1722054288.8824,2024-07-26 21:24:48.882,23,false,0.448138,-0.306274,0.580261,0.607178,0.877455,-0.422614,-0.140993,-0.045455,0.001634,0.054843
1722054288.9137,2024-07-26 21:24:48.913,24,false,0.448138,-0.306274,0.580261,0.607178,0.880385,-0.425544,-0.129274,-0.045499,0.001702,0.054913
1722054288.9449,2024-07-26 21:24:48.944,25,false,0.447973,-0.306274,0.580261,0.6073,0.886244,-0.428473,-0.136599,-0.045551,0.001666,0.054902
1722054288.9762,2024-07-26 21:24:48.976,26,false,0.447928,-0.306213,0.5802,0.607422,0.886244,-0.428473,-0.136599,-0.045415,0.001658,0.054832
1722054289.0074,2024-07-26 21:24:49.007,27,false,0.447762,-0.306335,0.5802,0.607483,0.896498,-0.42945,-0.136599,-0.045537,0.001651,0.054867
1722054289.0387,2024-07-26 21:24:49.038,28,false,0.447762,-0.306335,0.5802,0.607483,0.886244,-0.419684,-0.137087,-0.045524,0.001645,0.054898
1722054289.0699,2024-07-26 21:24:49.069,29,false,0.447637,-0.306396,0.5802,0.607544,0.886244,-0.419684,-0.137087,-0.045513,0.001639,0.054925
1722054289.1012,2024-07-26 21:24:49.101,30,false,0.447679,-0.306335,0.5802,0.607544,0.890639,-0.433845,-0.128786,-0.045551,0.001646,0.055024
1722054289.1324,2024-07-26 21:24:49.132,31,false,0.447559,-0.306274,0.580261,0.607605,0.891615,-0.441657,-0.146365,-0.045379,0.00164,0.055125
1722054289.1637,2024-07-26 21:24:49.163,0,false,0.447601,-0.306213,0.580261,0.607605,0.891615,-0.441657,-0.146365,-0.045223,0.001635,0.055215
1722054289.1949,2024-07-26 21:24:49.194,1,false,0.447679,-0.306335,0.5802,0.607544,0.888685,-0.431891,-0.140993,-0.045205,0.001728,0.055382
1722054289.2262,2024-07-26 21:24:49.226,2,false,0.447481,-0.306152,0.580322,0.607666,0.888685,-0.431891,-0.140993,-0.045189,0.001811,0.055533
1722054289.2574,2024-07-26 21:24:49.257,3,false,0.447439,-0.306213,0.580322,0.607666,0.900404,-0.434333,-0.143923,-0.045138,0.001899,0.055631
1722054289.2887,2024-07-26 21:24:49.288,4,false,0.447389,-0.306274,0.5802,0.607788,0.89308,-0.437263,-0.138064,-0.045153,0.001855,0.055598
1722054289.3199,2024-07-26 21:24:49.319,5,false,0.447186,-0.306213,0.580261,0.60791,0.89308,-0.437263,-0.138064,-0.045106,0.001816,0.055422
1722054289.3512,2024-07-26 21:24:49.351,6,false,0.44707,-0.30603,0.580383,0.607971,0.896986,-0.436774,-0.131716,-0.045039,0.001891,0.05536
1722054289.3824,2024-07-26 21:24:49.382,7,false,0.446954,-0.305847,0.580505,0.608032,0.882338,-0.440192,-0.134646,-0.045137,0.001861,0.055403
1722054289.4137,2024-07-26 21:24:49.413,8,false,0.446951,-0.305725,0.580444,0.608154,0.882338,-0.440192,-0.134646,-0.045225,0.001833,0.055442
1722054289.4449,2024-07-26 21:24:49.444,9,false,0.447026,-0.305725,0.580322,0.608215,0.888197,-0.440681,-0.137575,-0.045256,0.001821,0.055427
1722054289.4762,2024-07-26 21:24:49.476,10,false,0.446981,-0.305664,0.580261,0.608337,0.89308,-0.42945,-0.138552,-0.045211,0.001834,0.055341
1722054289.5074,2024-07-26 21:24:49.507,11,false,0.44706,-0.305664,0.5802,0.608337,0.89308,-0.42945,-0.138552,-0.04517,0.001846,0.055264
1722054289.5387,2024-07-26 21:24:49.538,12,false,0.447143,-0.305664,0.5802,0.608276,0.888685,-0.435309,-0.133669,-0.04512,0.001954,0.055206
1722054289.5699,2024-07-26 21:24:49.569,13,false,0.446898,-0.305664,0.580261,0.608398,0.881849,-0.438727,-0.131228,-0.045296,0.002027,0.055276
1722054289.6012,2024-07-26 21:24:49.601,14,false,0.446728,-0.305664,0.5802,0.608582,0.884779,-0.428473,-0.135134,-0.045295,0.002179,0.055218
1722054289.6324,2024-07-26 21:24:49.632,15,false,0.446657,-0.305542,0.580383,0.608521,0.888685,-0.441657,-0.135622,-0.045295,0.002132,0.055189
1722054289.6637,2024-07-26 21:24:49.663,16,false,0.446793,-0.305481,0.580566,0.608276,0.882826,-0.438239,-0.141482,-0.045343,0.002138,0.055188
1722054289.6949,2024-07-26 21:24:49.694,17,false,0.446634,-0.305481,0.580688,0.608276,0.882826,-0.438239,-0.141482,-0.04535,0.00212,0.055126
1722054289.7262,2024-07-26 21:24:49.726,18,false,0.446638,-0.305481,0.58075,0.608215,0.876967,-0.44361,-0.13611,-0.045368,0.002054,0.055082
1722054289.7574,2024-07-26 21:24:49.757,19,false,0.446555,-0.305481,0.58075,0.608276,0.883314,-0.436286,-0.13611,-0.04536,0.00202,0.055018
1722054289.7887,2024-07-26 21:24:49.788,20,false,0.446475,-0.305481,0.580811,0.608276,0.883314,-0.436286,-0.13611,-0.045353,0.001989,0.054961
1722054289.8199,2024-07-26 21:24:49.819,21,false,0.44643,-0.305542,0.58075,0.608337,0.876967,-0.442145,-0.145388,-0.045432,0.001997,0.054958
1722054289.8512,2024-07-26 21:24:49.851,22,false,0.446468,-0.305481,0.580688,0.608398,0.887221,-0.439216,-0.132692,-0.04532,0.001846,0.055016
1722054289.8824,2024-07-26 21:24:49.882,23,false,0.446472,-0.305481,0.58075,0.608337,0.887221,-0.439216,-0.132692,-0.045219,0.001711,0.055069
1722054289.9137,2024-07-26 21:24:49.913,24,false,0.44643,-0.30542,0.58075,0.608398,0.886244,-0.421637,-0.138552,-0.045177,0.00182,0.055104
1722054289.9449,2024-07-26 21:24:49.944,25,false,0.446552,-0.305237,0.580688,0.608459,0.882338,-0.434333,-0.138552,-0.04514,0.001736,0.055075
1722054289.9762,2024-07-26 21:24:49.976,26,false,0.446472,-0.305481,0.58075,0.608337,0.876967,-0.442145,-0.145388,-0.045179,0.00177,0.055122
1722054290.0074,2024-07-26 21:24:50.007,27,false,0.44659,-0.305176,0.580627,0.608521,0.876478,-0.439704,-0.146365,-0.045214,0.0018,0.055164
1722054290.0387,2024-07-26 21:24:50.038,28,false,0.446677,-0.304932,0.580688,0.608521,0.885756,-0.438239,-0.140505,-0.045283,0.001767,0.055141
1722054290.0699,2024-07-26 21:24:50.069,29,false,0.44676,-0.305054,0.580688,0.608398,0.886732,-0.438727,-0.133181,-0.045344,0.001798,0.055034
1722054290.1012,2024-07-26 21:24:50.101,30,false,0.446726,-0.304993,0.580811,0.608337,0.886732,-0.438727,-0.133181,-0.0454,0.001825,0.054939
1722054290.1324,2024-07-26 21:24:50.132,31,false,0.446768,-0.304932,0.580811,0.608337,0.885267,-0.434333,-0.148318,-0.045328,0.001875,0.054938
1722054290.1637,2024-07-26 21:24:50.163,0,false,0.446689,-0.30481,0.580872,0.608398,0.879896,-0.453376,-0.137087,-0.045324,0.001895,0.054791
1722054290.1949,2024-07-26 21:24:50.194,1,false,0.446575,-0.304626,0.581055,0.608398,0.879896,-0.453376,-0.137087,-0.045296,0.001864,0.054769
1722054290.2262,2024-07-26 21:24:50.226,2,false,0.446454,-0.304688,0.581116,0.608398,0.881849,-0.430426,-0.140993,-0.045271,0.001897,0.054748
1722054290.2574,2024-07-26 21:24:50.257,3,false,0.446413,-0.304749,0.581116,0.608398,0.880385,-0.456306,-0.131716,-0.045297,0.00194,0.054803
1722054290.2887,2024-07-26 21:24:50.288,4,false,0.446208,-0.30481,0.581177,0.608459,0.880385,-0.456306,-0.131716,-0.045467,0.001941,0.054719
1722054290.3199,2024-07-26 21:24:50.319,5,false,0.446541,-0.304688,0.581177,0.608276,0.880385,-0.456306,-0.131716,-0.04562,0.001942,0.054642
1722054290.3512,2024-07-26 21:24:50.351,6,false,0.446382,-0.304565,0.581299,0.608337,0.880873,-0.437751,-0.131716,-0.045746,0.001919,0.054586
1722054290.3824,2024-07-26 21:24:50.382,7,false,0.446182,-0.304626,0.581421,0.608337,0.874525,-0.434333,-0.130739,-0.045724,0.001934,0.054474
1722054290.4137,2024-07-26 21:24:50.413,8,false,0.44622,-0.304565,0.58136,0.608398,0.874525,-0.434333,-0.130739,-0.045705,0.001949,0.054373
1722054290.4449,2024-07-26 21:24:50.444,9,false,0.445977,-0.304443,0.581482,0.608521,0.887221,-0.439704,-0.141482,-0.045725,0.001961,0.05449
1722054290.4762,2024-07-26 21:24:50.476,10,false,0.445974,-0.304321,0.581421,0.608643,0.883803,-0.42652,-0.145876,-0.045742,0.001973,0.05451
1722054290.5074,2024-07-26 21:24:50.507,11,false,0.445814,-0.304199,0.581543,0.608704,0.883803,-0.42652,-0.145876,-0.045758,0.001983,0.054528
1722054290.5387,2024-07-26 21:24:50.538,12,false,0.445697,-0.304016,0.581665,0.608765,0.882826,-0.42652,-0.139528,-0.045772,0.00187,0.05452
1722054290.5699,2024-07-26 21:24:50.569,13,false,0.445568,-0.304077,0.581604,0.608887,0.882338,-0.444587,-0.131228,-0.045748,0.001952,0.054598
1722054290.6012,2024-07-26 21:24:50.601,14,false,0.445564,-0.304077,0.581543,0.608948,0.882338,-0.444587,-0.131228,-0.045727,0.002025,0.054668
1722054290.6324,2024-07-26 21:24:50.632,15,false,0.445648,-0.304077,0.581543,0.608887,0.879408,-0.435798,-0.135134,-0.045695,0.002079,0.054719
1722054290.6637,2024-07-26 21:24:50.663,16,false,0.445606,-0.304016,0.581543,0.608948,0.882338,-0.435309,-0.126833,-0.045825,0.00203,0.054764
1722054290.6949,2024-07-26 21:24:50.694,17,false,0.445606,-0.303894,0.581543,0.609009,0.882338,-0.435309,-0.126833,-0.045943,0.001985,0.054806
1722054290.7262,2024-07-26 21:24:50.726,18,false,0.445446,-0.303772,0.581665,0.60907,0.881849,-0.435309,-0.128298,-0.045767,0.001982,0.054745
1722054290.7574,2024-07-26 21:24:50.757,19,false,0.445606,-0.304016,0.581543,0.608948,0.881849,-0.435309,-0.128298,-0.04561,0.001979,0.054691
1722054290.7887,2024-07-26 21:24:50.788,20,false,0.445567,-0.303711,0.581604,0.60907,0.894545,-0.442634,-0.137087,-0.0457,0.001952,0.054629
1722054290.8199,2024-07-26 21:24:50.819,21,false,0.445567,-0.303711,0.581604,0.60907,0.890639,-0.438727,-0.13611,-0.045768,0.002013,0.054708
1722054290.8512,2024-07-26 21:24:50.851,22,false,0.445491,-0.303589,0.581726,0.60907,0.890639,-0.438727,-0.13611,-0.04583,0.002068,0.05478
1722054290.8824,2024-07-26 21:24:50.882,23,false,0.44537,-0.303528,0.581787,0.609131,0.882826,-0.436286,-0.141482,-0.045849,0.001959,0.05488
1722054290.9137,2024-07-26 21:24:50.913,24,false,0.445252,-0.303589,0.581909,0.60907,0.889174,-0.430915,-0.142458,-0.045867,0.001922,0.054873
1722054290.9449,2024-07-26 21:24:50.944,25,false,0.445332,-0.303711,0.581848,0.609009,0.889174,-0.430915,-0.142458,-0.045882,0.001888,0.054867
1722054290.9762,2024-07-26 21:24:50.976,26,false,0.445332,-0.303711,0.581848,0.609009,0.884291,-0.433845,-0.143435,-0.045933,0.001834,0.054861
1722054291.0074,2024-07-26 21:24:51.007,27,false,0.445131,-0.30365,0.58197,0.60907,0.885267,-0.439216,-0.132204,-0.045917,0.001846,0.054734
1722054291.0387,2024-07-26 21:24:51.038,28,false,0.445009,-0.303711,0.582031,0.60907,0.885267,-0.439216,-0.132204,-0.045903,0.001857,0.05462
1722054291.0699,2024-07-26 21:24:51.069,29,false,0.445009,-0.303833,0.582031,0.609009,0.881361,-0.441657,-0.138552,-0.045817,0.00183,0.054639
1722054291.1012,2024-07-26 21:24:51.101,30,false,0.445145,-0.30365,0.582214,0.608826,0.891127,-0.437751,-0.128298,-0.045899,0.001805,0.054656
1722054291.1324,2024-07-26 21:24:51.132,31,false,0.445187,-0.303589,0.582214,0.608826,0.869154,-0.442145,-0.132692,-0.04596,0.001735,0.054684
1722054291.1637,2024-07-26 21:24:51.163,0,false,0.445274,-0.303711,0.582275,0.608643,0.886244,-0.444099,-0.125368,-0.045941,0.001818,0.054574
1722054291.1949,2024-07-26 21:24:51.194,1,false,0.445274,-0.303711,0.582275,0.608643,0.886244,-0.438727,-0.140505,-0.045949,0.001794,0.054598
1722054291.2262,2024-07-26 21:24:51.226,2,false,0.445066,-0.303772,0.582275,0.608765,0.886244,-0.438727,-0.140505,-0.045957,0.001774,0.054619
1722054291.2574,2024-07-26 21:24:51.257,3,false,0.444979,-0.303772,0.582214,0.608887,0.887221,-0.432868,-0.126833,-0.04578,0.00167,0.054577
1722054291.2887,2024-07-26 21:24:51.288,4,false,0.44494,-0.303589,0.582275,0.608948,0.886244,-0.434333,-0.145388,-0.045792,0.001674,0.054564
1722054291.3199,2024-07-26 21:24:51.319,5,false,0.444853,-0.303467,0.582214,0.609131,0.886244,-0.434333,-0.145388,-0.045803,0.001677,0.054552
1722054291.3512,2024-07-26 21:24:51.351,6,false,0.444773,-0.303345,0.582275,0.609192,0.883314,-0.446052,-0.137575,-0.045873,0.00168,0.054444
1722054291.3824,2024-07-26 21:24:51.382,7,false,0.444943,-0.303101,0.582336,0.609131,0.87892,-0.436286,-0.138552,-0.045864,0.00183,0.054517
1722054291.4137,2024-07-26 21:24:51.413,8,false,0.444935,-0.303101,0.582214,0.609253,0.87892,-0.436286,-0.138552,-0.045867,0.001854,0.054534
1722054291.4449,2024-07-26 21:24:51.444,9,false,0.44481,-0.303162,0.582214,0.609314,0.885267,-0.441169,-0.133181,-0.045895,0.00184,0.05461
1722054291.4762,2024-07-26 21:24:51.476,10,false,0.444848,-0.303101,0.582153,0.609375,0.875013,-0.440192,-0.138552,-0.045895,0.001827,0.054643
1722054291.5074,2024-07-26 21:24:51.507,11,false,0.444935,-0.303101,0.582214,0.609253,0.883314,-0.446052,-0.137575,-0.045859,0.001693,0.054733
1722054291.5387,2024-07-26 21:24:51.538,12,false,0.44489,-0.303162,0.582153,0.609314,0.886244,-0.442145,-0.155642,-0.045826,0.001572,0.054814
1722054291.5699,2024-07-26 21:24:51.569,13,false,0.444969,-0.30304,0.582092,0.609375,0.87892,-0.444587,-0.137087,-0.045821,0.001488,0.054813
1722054291.6012,2024-07-26 21:24:51.601,14,false,0.44497,-0.303162,0.582092,0.609314,0.880873,-0.442634,-0.136599,-0.045939,0.00162,0.054911
1722054291.6324,2024-07-26 21:24:51.632,15,false,0.445008,-0.303223,0.582031,0.609314,0.880873,-0.442634,-0.136599,-0.046045,0.001739,0.054998
1722054291.6637,2024-07-26 21:24:51.663,16,false,0.445084,-0.303223,0.581909,0.609375,0.884779,-0.430915,-0.144411,-0.045945,0.001846,0.054955
1722054291.6949,2024-07-26 21:24:51.694,17,false,0.444963,-0.303284,0.58197,0.609375,0.883314,-0.448005,-0.138552,-0.04594,0.001893,0.054989
1722054291.7262,2024-07-26 21:24:51.726,18,false,0.445004,-0.303223,0.58197,0.609375,0.883314,-0.448005,-0.138552,-0.045936,0.001936,0.05502
1722054291.7574,2024-07-26 21:24:51.757,19,false,0.445005,-0.303345,0.58197,0.609314,0.880873,-0.453376,-0.13904,-0.045835,0.001791,0.055109
1722054291.7887,2024-07-26 21:24:51.788,20,false,0.445043,-0.303406,0.581909,0.609314,0.879896,-0.447517,-0.144411,-0.045854,0.001649,0.055116
1722054291.8199,2024-07-26 21:24:51.819,21,false,0.444921,-0.303345,0.58197,0.609375,0.879896,-0.447517,-0.144411,-0.04587,0.00152,0.055122
1722054291.8512,2024-07-26 21:24:51.851,22,false,0.445,-0.303223,0.581909,0.609436,0.875502,-0.437751,-0.148318,-0.045751,0.001576,0.054993
1722054291.8824,2024-07-26 21:24:51.882,23,false,0.44491,-0.303589,0.581787,0.609436,0.878431,-0.450935,-0.137087,-0.045827,0.001589,0.054987
1722054291.9137,2024-07-26 21:24:51.913,24,false,0.445108,-0.30365,0.581604,0.609436,0.877455,-0.436286,-0.1449,-0.045724,0.00165,0.055006
1722054291.9449,2024-07-26 21:24:51.944,25,false,0.445146,-0.303833,0.581543,0.609375,0.876478,-0.454353,-0.138064,-0.045742,0.001656,0.054913
1722054291.9762,2024-07-26 21:24:51.976,26,false,0.445276,-0.303894,0.581604,0.609192,0.884779,-0.440681,-0.137575,-0.04577,0.001686,0.054964
1722054292.0074,2024-07-26 21:24:52.007,27,false,0.445405,-0.303955,0.581665,0.609009,0.884779,-0.440681,-0.137575,-0.045795,0.001712,0.05501
1722054292.0387,2024-07-26 21:24:52.038,28,false,0.445367,-0.304016,0.581726,0.608948,0.891615,-0.430426,-0.142947,-0.045695,0.001675,0.055051
1722054292.0699,2024-07-26 21:24:52.069,29,false,0.44528,-0.304138,0.581665,0.609009,0.891127,-0.424567,-0.132204,-0.045716,0.001557,0.055015
1722054292.1012,2024-07-26 21:24:52.101,30,false,0.445189,-0.304138,0.581543,0.609192,0.891127,-0.424567,-0.132204,-0.045673,0.001633,0.054982
1722054292.1324,2024-07-26 21:24:52.132,31,false,0.445071,-0.304077,0.581665,0.609192,0.876967,-0.440192,-0.13904,-0.045659,0.001702,0.054953
1722054292.1637,2024-07-26 21:24:52.163,0,false,0.445154,-0.303955,0.581665,0.609192,0.879408,-0.430426,-0.143923,-0.045695,0.001788,0.054975
1722054292.1949,2024-07-26 21:24:52.194,1,false,0.445162,-0.303833,0.581787,0.609131,0.879408,-0.430426,-0.143923,-0.045728,0.001865,0.054995
1722054292.2262,2024-07-26 21:24:52.226,2,false,0.445207,-0.303772,0.581848,0.60907,0.885756,-0.425544,-0.129763,-0.045599,0.001899,0.055013
1722054292.2574,2024-07-26 21:24:52.257,3,false,0.445169,-0.303711,0.581909,0.60907,0.874037,-0.446052,-0.14197,-0.04558,0.001928,0.055054
1722054292.2887,2024-07-26 21:24:52.288,4,false,0.445162,-0.303833,0.581787,0.609131,0.876967,-0.440192,-0.13904,-0.045514,0.001882,0.055079
1722054292.3199,2024-07-26 21:24:52.319,5,false,0.445124,-0.303894,0.581848,0.60907,0.881361,-0.451911,-0.138552,-0.045455,0.001865,0.055064
1722054292.3512,2024-07-26 21:24:52.351,6,false,0.445086,-0.304077,0.581909,0.608948,0.876967,-0.446052,-0.144411,-0.045414,0.001874,0.055039
1722054292.3824,2024-07-26 21:24:52.382,7,false,0.445006,-0.304077,0.58197,0.608948,0.882826,-0.436286,-0.129274,-0.045414,0.001882,0.054991
1722054292.4137,2024-07-26 21:24:52.413,8,false,0.444926,-0.304199,0.582031,0.608887,0.882826,-0.436286,-0.129274,-0.045413,0.001889,0.054949
1722054292.4449,2024-07-26 21:24:52.444,9,false,0.444881,-0.304138,0.58197,0.609009,0.873549,-0.437263,-0.134157,-0.045401,0.001871,0.054923
1722054292.4762,2024-07-26 21:24:52.476,10,false,0.444839,-0.304321,0.58197,0.608948,0.879896,-0.446052,-0.126345,-0.045548,0.001891,0.054899
1722054292.5074,2024-07-26 21:24:52.507,11,false,0.444964,-0.30426,0.58197,0.608887,0.879896,-0.446052,-0.126345,-0.045474,0.001897,0.05489
1722054292.5387,2024-07-26 21:24:52.538,12,false,0.444926,-0.304321,0.582031,0.608826,0.874525,-0.427497,-0.14197,-0.045455,0.001915,0.054931
1722054292.5699,2024-07-26 21:24:52.569,13,false,0.44501,-0.304443,0.582031,0.608704,0.87599,-0.445563,-0.133669,-0.045438,0.001992,0.054907
1722054292.6012,2024-07-26 21:24:52.601,14,false,0.445052,-0.304626,0.582031,0.608582,0.87599,-0.445563,-0.133669,-0.045375,0.002013,0.054995
1722054292.6324,2024-07-26 21:24:52.632,15,false,0.445086,-0.304688,0.581909,0.608643,0.892103,-0.431891,-0.137087,-0.045427,0.001982,0.054989
1722054292.6637,2024-07-26 21:24:52.663,16,false,0.445082,-0.30481,0.581848,0.608643,0.869642,-0.431891,-0.136599,-0.045425,0.001979,0.055008
1722054292.6949,2024-07-26 21:24:52.694,17,false,0.44496,-0.304871,0.581909,0.608643,0.882826,-0.436286,-0.142947,-0.045497,0.001952,0.055061
1722054292.7262,2024-07-26 21:24:52.726,18,false,0.444964,-0.304871,0.58197,0.608582,0.877455,-0.436774,-0.139528,-0.045525,0.001916,0.054951
1722054292.7574,2024-07-26 21:24:52.757,19,false,0.445009,-0.305054,0.582031,0.608398,0.885756,-0.441657,-0.135134,-0.04555,0.001981,0.054912
1722054292.7887,2024-07-26 21:24:52.788,20,false,0.444971,-0.305115,0.582092,0.608337,0.885756,-0.441657,-0.135134,-0.045573,0.002039,0.054878
1722054292.8199,2024-07-26 21:24:52.819,21,false,0.444933,-0.305176,0.582153,0.608276,0.887709,-0.437263,-0.13611,-0.045557,0.001969,0.054846
1722054292.8512,2024-07-26 21:24:52.851,22,false,0.444891,-0.305237,0.582153,0.608276,0.877943,-0.433356,-0.134646,-0.045615,0.00198,0.054916
1722054292.8824,2024-07-26 21:24:52.882,23,false,0.4448,-0.305359,0.582031,0.608398,0.877943,-0.433356,-0.134646,-0.045668,0.001989,0.054979
1722054292.9137,2024-07-26 21:24:52.913,24,false,0.444712,-0.305481,0.58197,0.608459,0.879408,-0.439704,-0.13611,-0.045704,0.002108,0.055084
1722054292.9449,2024-07-26 21:24:52.944,25,false,0.444629,-0.305481,0.58197,0.608521,0.876478,-0.440681,-0.131228,-0.045687,0.002105,0.05513
1722054292.9762,2024-07-26 21:24:52.976,26,false,0.444591,-0.305542,0.582031,0.608459,0.876478,-0.440681,-0.131228,-0.045781,0.002114,0.055098
1722054293.0074,2024-07-26 21:24:53.007,27,false,0.444559,-0.305603,0.582214,0.608276,0.892103,-0.427985,-0.133181,-0.045707,0.002061,0.055069
1722054293.0387,2024-07-26 21:24:53.038,28,false,0.444629,-0.305481,0.58197,0.608521,0.892103,-0.427985,-0.133181,-0.045739,0.001892,0.055104
1722054293.0699,2024-07-26 21:24:53.069,29,false,0.444472,-0.305725,0.582153,0.608337,0.880385,-0.444587,-0.133181,-0.045743,0.001922,0.055173
1722054293.1012,2024-07-26 21:24:53.101,30,false,0.444343,-0.305786,0.582092,0.608459,0.885756,-0.439704,-0.143435,-0.045722,0.001962,0.05521
1722054293.1324,2024-07-26 21:24:53.132,31,false,0.444217,-0.305847,0.582092,0.608521,0.885756,-0.439704,-0.143435,-0.045654,0.001863,0.055206
1722054293.1637,2024-07-26 21:24:53.163,0,false,0.444057,-0.305847,0.582214,0.608521,0.895033,-0.433845,-0.13611,-0.045666,0.001836,0.055045
1722054293.1949,2024-07-26 21:24:53.194,1,false,0.443977,-0.305969,0.582275,0.608459,0.873549,-0.439704,-0.138064,-0.045641,0.001848,0.055058
1722054293.2262,2024-07-26 21:24:53.226,2,false,0.443809,-0.305969,0.582275,0.608582,0.873549,-0.439704,-0.138064,-0.045618,0.001858,0.05507
1722054293.2574,2024-07-26 21:24:53.257,3,false,0.443726,-0.305969,0.582275,0.608643,0.867689,-0.435798,-0.136599,-0.045634,0.001831,0.055019
1722054293.2887,2024-07-26 21:24:53.288,4,false,0.443641,-0.306091,0.582275,0.608643,0.87599,-0.441657,-0.136599,-0.045648,0.001807,0.055121
1722054293.3199,2024-07-26 21:24:53.319,5,false,0.443767,-0.306152,0.582275,0.608521,0.87599,-0.441657,-0.136599,-0.045661,0.001785,0.055212
1722054293.3512,2024-07-26 21:24:53.351,6,false,0.443522,-0.306396,0.582397,0.608459,0.885267,-0.439216,-0.133181,-0.045685,0.001753,0.055184
1722054293.3824,2024-07-26 21:24:53.382,7,false,0.443395,-0.30658,0.582397,0.608459,0.883314,-0.428473,-0.133669,-0.045731,0.001724,0.055195
1722054293.4137,2024-07-26 21:24:53.413,8,false,0.443146,-0.306824,0.582458,0.608459,0.883314,-0.428473,-0.133669,-0.04576,0.001649,0.055132
1722054293.4449,2024-07-26 21:24:53.444,9,false,0.443107,-0.306885,0.58252,0.608398,0.883314,-0.428473,-0.133669,-0.045786,0.001582,0.055076
1722054293.4762,2024-07-26 21:24:53.476,10,false,0.443104,-0.306885,0.582458,0.608459,0.878431,-0.440192,-0.127321,-0.045712,0.001643,0.055086
1722054293.5074,2024-07-26 21:24:53.507,11,false,0.443137,-0.307068,0.582336,0.608459,0.87306,-0.438727,-0.133181,-0.045682,0.001735,0.055095
1722054293.5387,2024-07-26 21:24:53.538,12,false,0.44314,-0.30719,0.582397,0.608337,0.87306,-0.438727,-0.133181,-0.045655,0.001818,0.055103
1722054293.5699,2024-07-26 21:24:53.569,13,false,0.443144,-0.30719,0.582458,0.608276,0.868666,-0.438727,-0.129274,-0.04563,0.001893,0.055074
1722054293.6012,2024-07-26 21:24:53.601,14,false,0.44327,-0.307129,0.582458,0.608215,0.882338,-0.430915,-0.13611,-0.045608,0.001923,0.055084
1722054293.6324,2024-07-26 21:24:53.632,15,false,0.443311,-0.30719,0.582458,0.608154,0.882338,-0.430915,-0.13611,-0.045625,0.001865,0.055203
1722054293.6637,2024-07-26 21:24:53.663,16,false,0.443185,-0.307251,0.582458,0.608215,0.883314,-0.438239,-0.134157,-0.045701,0.001935,0.055225
1722054293.6949,2024-07-26 21:24:53.694,17,false,0.443093,-0.307373,0.582336,0.608337,0.882338,-0.422614,-0.129274,-0.04566,0.001949,0.055196
1722054293.7262,2024-07-26 21:24:53.726,18,false,0.44309,-0.307373,0.582275,0.608398,0.882338,-0.422614,-0.129274,-0.045623,0.001962,0.055169
1722054293.7574,2024-07-26 21:24:53.757,19,false,0.443224,-0.30719,0.582397,0.608276,0.875013,-0.457771,-0.136599,-0.045724,0.001924,0.055133
1722054293.7887,2024-07-26 21:24:53.788,20,false,0.443522,-0.306885,0.582458,0.608154,0.880385,-0.437263,-0.134646,-0.045741,0.001878,0.055174
1722054293.8199,2024-07-26 21:24:53.819,21,false,0.44309,-0.307373,0.582275,0.608398,0.883314,-0.438239,-0.134157,-0.045672,0.001947,0.055285
1722054293.8512,2024-07-26 21:24:53.851,22,false,0.443607,-0.306763,0.582458,0.608154,0.87892,-0.428473,-0.140993,-0.045658,0.001838,0.055249
1722054293.8824,2024-07-26 21:24:53.882,23,false,0.443726,-0.306702,0.582336,0.608215,0.884779,-0.439216,-0.130251,-0.045584,0.001861,0.05534
1722054293.9137,2024-07-26 21:24:53.913,24,false,0.443802,-0.306702,0.582214,0.608276,0.872084,-0.432868,-0.137575,-0.045604,0.00187,0.055262
1722054293.9449,2024-07-26 21:24:53.944,25,false,0.443757,-0.306641,0.582153,0.608398,0.872084,-0.432868,-0.137575,-0.045621,0.001879,0.055193
1722054293.9762,2024-07-26 21:24:53.976,26,false,0.443878,-0.306824,0.582092,0.608276,0.879408,-0.43238,-0.139528,-0.045612,0.001801,0.055167
1722054294.0074,2024-07-26 21:24:54.007,27,false,0.444,-0.306763,0.582031,0.608276,0.885267,-0.439704,-0.129763,-0.045604,0.001828,0.055204
1722054294.0387,2024-07-26 21:24:54.038,28,false,0.443997,-0.306763,0.58197,0.608337,0.885267,-0.439704,-0.129763,-0.045597,0.001853,0.055238
1722054294.0699,2024-07-26 21:24:54.069,29,false,0.444198,-0.306824,0.581848,0.608276,0.880873,-0.428473,-0.142947,-0.045615,0.001887,0.055232
1722054294.1012,2024-07-26 21:24:54.101,30,false,0.44424,-0.306763,0.581848,0.608276,0.880385,-0.439216,-0.131228,-0.045497,0.001833,0.055129
1722054294.1324,2024-07-26 21:24:54.132,31,false,0.444079,-0.306885,0.58197,0.608215,0.880385,-0.439216,-0.131228,-0.045391,0.001784,0.055036
1722054294.1637,2024-07-26 21:24:54.163,0,false,0.444159,-0.306885,0.581909,0.608215,0.87892,-0.437263,-0.133669,-0.045344,0.001691,0.055062
1722054294.1949,2024-07-26 21:24:54.194,1,false,0.443874,-0.306824,0.582031,0.608337,0.876478,-0.434821,-0.140017,-0.045338,0.001668,0.055049
1722054294.2262,2024-07-26 21:24:54.226,2,false,0.44392,-0.306763,0.582092,0.608276,0.887709,-0.435309,-0.13904,-0.045297,0.001709,0.055013
1722054294.2574,2024-07-26 21:24:54.257,3,false,0.443879,-0.306702,0.582092,0.608337,0.886244,-0.440681,-0.126833,-0.04543,0.001733,0.055054
1722054294.2887,2024-07-26 21:24:54.288,4,false,0.443834,-0.306641,0.582031,0.608459,0.87599,-0.446052,-0.137087,-0.045392,0.001719,0.055127
1722054294.3199,2024-07-26 21:24:54.319,5,false,0.443879,-0.30658,0.582092,0.608398,0.87599,-0.446052,-0.137087,-0.045381,0.001693,0.055083
1722054294.3512,2024-07-26 21:24:54.351,6,false,0.443959,-0.30658,0.582031,0.608398,0.881361,-0.427985,-0.135622,-0.045445,0.001744,0.055154
1722054294.3824,2024-07-26 21:24:54.382,7,false,0.444085,-0.306519,0.582031,0.608337,0.886244,-0.435798,-0.131228,-0.045515,0.001716,0.055107
1722054294.4137,2024-07-26 21:24:54.413,8,false,0.444092,-0.306519,0.582153,0.608215,0.886244,-0.435798,-0.131228,-0.045578,0.001691,0.055065
1722054294.4449,2024-07-26 21:24:54.444,9,false,0.444054,-0.306458,0.582214,0.608215,0.87306,-0.429938,-0.120485,-0.045561,0.001717,0.054979
1722054294.4762,2024-07-26 21:24:54.476,10,false,0.443899,-0.306213,0.582397,0.608276,0.880873,-0.427985,-0.132204,-0.04551,0.00168,0.055023
1722054294.5074,2024-07-26 21:24:54.507,11,false,0.443778,-0.30603,0.582458,0.608398,0.880873,-0.427985,-0.132204,-0.045439,0.001646,0.055038
1722054294.5387,2024-07-26 21:24:54.538,12,false,0.443619,-0.305786,0.582581,0.608521,0.869154,-0.448493,-0.142947,-0.045485,0.001591,0.055125
1722054294.5699,2024-07-26 21:24:54.569,13,false,0.443899,-0.306213,0.582397,0.608276,0.869154,-0.448493,-0.142947,-0.045526,0.001542,0.055204
1722054294.6012,2024-07-26 21:24:54.601,14,false,0.443658,-0.305603,0.58252,0.608643,0.885756,-0.44654,-0.142947,-0.045588,0.001498,0.055213
1722054294.6324,2024-07-26 21:24:54.632,15,false,0.443578,-0.305359,0.582581,0.608765,0.886732,-0.434821,-0.128786,-0.045668,0.001568,0.055295
1722054294.6637,2024-07-26 21:24:54.663,16,false,0.443498,-0.305115,0.582642,0.608887,0.886732,-0.434821,-0.128786,-0.04574,0.001631,0.055369
1722054294.6949,2024-07-26 21:24:54.694,17,false,0.443537,-0.305054,0.582581,0.608948,0.887709,-0.439704,-0.139528,-0.045658,0.001675,0.055447
1722054294.7262,2024-07-26 21:24:54.726,18,false,0.443579,-0.304993,0.582581,0.608948,0.881849,-0.451911,-0.138552,-0.045646,0.001715,0.055493
1722054294.7574,2024-07-26 21:24:54.757,19,false,0.443544,-0.30481,0.582703,0.608948,0.881849,-0.451911,-0.138552,-0.045634,0.001751,0.055535
1722054294.7887,2024-07-26 21:24:54.788,20,false,0.443796,-0.304688,0.582703,0.608826,0.895033,-0.444099,-0.134157,-0.045575,0.001735,0.055438
1722054294.8199,2024-07-26 21:24:54.819,21,false,0.443757,-0.304626,0.582764,0.608826,0.883314,-0.438727,-0.144411,-0.045718,0.001659,0.055436
1722054294.8512,2024-07-26 21:24:54.851,22,false,0.443963,-0.304565,0.582703,0.608765,0.883314,-0.438727,-0.144411,-0.045785,0.001591,0.055227
1722054294.8824,2024-07-26 21:24:54.882,23,false,0.443674,-0.304504,0.582764,0.608948,0.883803,-0.441657,-0.135134,-0.045674,0.001602,0.055149
1722054294.9137,2024-07-26 21:24:54.913,24,false,0.443757,-0.304626,0.582764,0.608826,0.883314,-0.442634,-0.129763,-0.045635,0.001528,0.055188
1722054294.9449,2024-07-26 21:24:54.944,25,false,0.443754,-0.304749,0.582703,0.608826,0.883314,-0.442634,-0.129763,-0.045613,0.001534,0.055065
1722054294.9762,2024-07-26 21:24:54.976,26,false,0.443959,-0.304443,0.582642,0.608887,0.883314,-0.442634,-0.129763,-0.045593,0.001539,0.054954
1722054295.0074,2024-07-26 21:24:55.007,27,false,0.443876,-0.304443,0.582642,0.608948,0.874037,-0.442145,-0.140993,-0.045636,0.001641,0.055001
1722054295.0387,2024-07-26 21:24:55.038,28,false,0.443754,-0.304504,0.582703,0.608948,0.880873,-0.436774,-0.138552,-0.045491,0.001514,0.055104
1722054295.0699,2024-07-26 21:24:55.069,29,false,0.443792,-0.304565,0.582642,0.608948,0.880873,-0.436774,-0.138552,-0.045361,0.001399,0.055197
1722054295.1012,2024-07-26 21:24:55.101,30,false,0.44383,-0.304626,0.582581,0.608948,0.885756,-0.451423,-0.130739,-0.045244,0.001393,0.055195
1722054295.1324,2024-07-26 21:24:55.132,31,false,0.443826,-0.304749,0.58252,0.608948,0.884291,-0.445075,-0.137087,-0.045383,0.001413,0.055132
1722054295.1637,2024-07-26 21:24:55.163,0,false,0.443868,-0.304932,0.58252,0.608826,0.884291,-0.445075,-0.137087,-0.045337,0.00154,0.055112
1722054295.1949,2024-07-26 21:24:55.194,1,false,0.443826,-0.305115,0.58252,0.608765,0.879896,-0.435309,-0.135622,-0.045381,0.001484,0.055204
1722054295.2262,2024-07-26 21:24:55.226,2,false,0.443826,-0.305115,0.58252,0.608765,0.87892,-0.440681,-0.145388,-0.04542,0.001494,0.055079
1722054295.2574,2024-07-26 21:24:55.257,3,false,0.443788,-0.305054,0.582581,0.608765,0.87892,-0.440681,-0.145388,-0.045529,0.001638,0.055101
1722054295.2887,2024-07-26 21:24:55.288,4,false,0.443575,-0.304993,0.58252,0.609009,0.876967,-0.44947,-0.120974,-0.045578,0.001547,0.055133
1722054295.3199,2024-07-26 21:24:55.319,5,false,0.443575,-0.304871,0.58252,0.60907,0.879408,-0.440192,-0.134646,-0.045501,0.001588,0.055137
1722054295.3512,2024-07-26 21:24:55.351,6,false,0.443788,-0.305054,0.582581,0.608765,0.879896,-0.435309,-0.135622,-0.045504,0.001698,0.055117
1722054295.3824,2024-07-26 21:24:55.382,7,false,0.443488,-0.304871,0.582458,0.609192,0.880873,-0.453376,-0.140017,-0.045543,0.001613,0.055135
1722054295.4137,2024-07-26 21:24:55.413,8,false,0.443571,-0.304749,0.582458,0.609192,0.887221,-0.44947,-0.143435,-0.04553,0.001647,0.055164
1722054295.4449,2024-07-26 21:24:55.444,9,false,0.443655,-0.304626,0.582458,0.609192,0.864271,-0.450935,-0.138064,-0.045518,0.001556,0.055189
1722054295.4762,2024-07-26 21:24:55.476,10,false,0.443732,-0.304504,0.582336,0.609314,0.864271,-0.450935,-0.138064,-0.045507,0.001473,0.055212
1722054295.5074,2024-07-26 21:24:55.507,11,false,0.443777,-0.304321,0.582397,0.609314,0.881361,-0.443122,-0.131716,-0.045449,0.001473,0.055136
1722054295.5387,2024-07-26 21:24:55.538,12,false,0.443819,-0.30426,0.582397,0.609314,0.883803,-0.449958,-0.137575,-0.045409,0.001545,0.05514
1722054295.5699,2024-07-26 21:24:55.569,13,false,0.443903,-0.304016,0.582397,0.609375,0.883803,-0.449958,-0.137575,-0.045372,0.00161,0.055143
1722054295.6012,2024-07-26 21:24:55.601,14,false,0.443891,-0.304016,0.582214,0.609558,0.882826,-0.44361,-0.137087,-0.045474,0.001608,0.05511
1722054295.6324,2024-07-26 21:24:55.632,15,false,0.443975,-0.303894,0.582214,0.609558,0.877943,-0.442145,-0.129763,-0.045504,0.001606,0.055117
1722054295.6637,2024-07-26 21:24:55.663,16,false,0.444054,-0.30365,0.582153,0.60968,0.877943,-0.442145,-0.129763,-0.045544,0.001592,0.055013
1722054295.6949,2024-07-26 21:24:55.694,17,false,0.4441,-0.303589,0.582214,0.609619,0.889662,-0.444099,-0.148806,-0.045542,0.001603,0.054956
1722054295.7262,2024-07-26 21:24:55.726,18,false,0.444225,-0.303406,0.582214,0.609619,0.876478,-0.444099,-0.140993,-0.045639,0.001651,0.05499
1722054295.7574,2024-07-26 21:24:55.757,19,false,0.444061,-0.303406,0.582275,0.60968,0.881361,-0.444587,-0.130739,-0.045726,0.001632,0.05496
1722054295.7887,2024-07-26 21:24:55.788,20,false,0.443935,-0.303345,0.582275,0.609802,0.874525,-0.437263,-0.140017,-0.045744,0.001579,0.054994
1722054295.8199,2024-07-26 21:24:55.819,21,false,0.443897,-0.303284,0.582336,0.609802,0.881361,-0.439216,-0.129763,-0.045649,0.001494,0.05489
1722054295.8512,2024-07-26 21:24:55.851,22,false,0.443779,-0.303345,0.582458,0.609741,0.881361,-0.439216,-0.129763,-0.045564,0.001418,0.054797
1722054295.8824,2024-07-26 21:24:55.882,23,false,0.443852,-0.303467,0.582275,0.609802,0.879408,-0.437263,-0.143923,-0.045561,0.001423,0.0547
1722054295.9137,2024-07-26 21:24:55.913,24,false,0.443932,-0.303467,0.582214,0.609802,0.882826,-0.449958,-0.130739,-0.045546,0.001378,0.054711
1722054295.9449,2024-07-26 21:24:55.944,25,false,0.444134,-0.303528,0.582092,0.609741,0.882826,-0.449958,-0.130739,-0.04563,0.001338,0.054721
1722054295.9762,2024-07-26 21:24:55.976,26,false,0.444378,-0.30365,0.58197,0.609619,0.881849,-0.435309,-0.142458,-0.045645,0.001338,0.054645
1722054296.0074,2024-07-26 21:24:56.007,27,false,0.444424,-0.303833,0.582031,0.609436,0.87306,-0.440681,-0.140017,-0.045622,0.0014,0.054759
1722054296.0387,2024-07-26 21:24:56.038,28,false,0.44447,-0.303894,0.582092,0.609314,0.87306,-0.440681,-0.140017,-0.0456,0.001455,0.054862
1722054296.0699,2024-07-26 21:24:56.069,29,false,0.444306,-0.304016,0.582153,0.609314,0.872572,-0.433845,-0.140017,-0.045655,0.001542,0.054869
1722054296.1012,2024-07-26 21:24:56.101,30,false,0.444264,-0.303955,0.582153,0.609375,0.89308,-0.430915,-0.135622,-0.04563,0.001461,0.054802
1722054296.1324,2024-07-26 21:24:56.132,31,false,0.44447,-0.303894,0.582092,0.609314,0.881849,-0.435309,-0.142458,-0.045535,0.001547,0.054852
1722054296.1637,2024-07-26 21:24:56.163,0,false,0.444139,-0.304016,0.582153,0.609436,0.881849,-0.42945,-0.135622,-0.045449,0.001624,0.054896
1722054296.1949,2024-07-26 21:24:56.194,1,false,0.444139,-0.303894,0.582153,0.609497,0.884291,-0.446052,-0.132204,-0.045397,0.001571,0.054998
1722054296.2262,2024-07-26 21:24:56.226,2,false,0.444181,-0.303955,0.582153,0.609436,0.888685,-0.439704,-0.129763,-0.045337,0.001487,0.055077
1722054296.2574,2024-07-26 21:24:56.257,3,false,0.44407,-0.303894,0.582397,0.609314,0.888685,-0.439704,-0.129763,-0.045284,0.001412,0.055148
1722054296.2887,2024-07-26 21:24:56.288,4,false,0.444028,-0.303833,0.582397,0.609375,0.869642,-0.436286,-0.131228,-0.045345,0.001503,0.055187
1722054296.3199,2024-07-26 21:24:56.319,5,false,0.444066,-0.303894,0.582336,0.609375,0.875013,-0.448493,-0.132692,-0.045388,0.00145,0.055247
1722054296.3512,2024-07-26 21:24:56.351,6,false,0.444146,-0.303894,0.582275,0.609375,0.875013,-0.448493,-0.132692,-0.045464,0.001537,0.055191
1722054296.3824,2024-07-26 21:24:56.382,7,false,0.443986,-0.303894,0.582397,0.609375,0.879408,-0.437263,-0.144411,-0.045495,0.001518,0.055092
1722054296.4137,2024-07-26 21:24:56.413,8,false,0.443906,-0.303894,0.582458,0.609375,0.87306,-0.441169,-0.14197,-0.045523,0.001586,0.055003
1722054296.4449,2024-07-26 21:24:56.444,9,false,0.443906,-0.303894,0.582458,0.609375,0.87306,-0.441169,-0.14197,-0.045585,0.001573,0.055057
1722054296.4762,2024-07-26 21:24:56.476,10,false,0.443781,-0.303955,0.582458,0.609436,0.87306,-0.441169,-0.14197,-0.045641,0.001563,0.055105
1722054296.5074,2024-07-26 21:24:56.507,11,false,0.443823,-0.304016,0.582458,0.609375,0.878431,-0.440681,-0.138064,-0.04563,0.001516,0.055039
1722054296.5387,2024-07-26 21:24:56.538,12,false,0.443781,-0.304077,0.582458,0.609375,0.89015,-0.452888,-0.134646,-0.045669,0.001523,0.055078
1722054296.5699,2024-07-26 21:24:56.569,13,false,0.443746,-0.304016,0.582581,0.609314,0.89015,-0.452888,-0.134646,-0.045656,0.001603,0.055161
1722054296.6012,2024-07-26 21:24:56.601,14,false,0.443582,-0.304016,0.582642,0.609375,0.876478,-0.431403,-0.134157,-0.045619,0.00165,0.055321
1722054296.6324,2024-07-26 21:24:56.632,15,false,0.44362,-0.303955,0.582581,0.609436,0.875013,-0.443122,-0.135134,-0.045647,0.001656,0.055319
1722054296.6637,2024-07-26 21:24:56.663,16,false,0.443411,-0.304016,0.582581,0.609558,0.875013,-0.443122,-0.135134,-0.045672,0.001661,0.055317
1722054296.6949,2024-07-26 21:24:56.694,17,false,0.443445,-0.304077,0.582458,0.609619,0.878431,-0.442634,-0.128298,-0.045597,0.001764,0.055376
1722054296.7262,2024-07-26 21:24:56.726,18,false,0.443438,-0.304199,0.582336,0.60968,0.871595,-0.451911,-0.141482,-0.045652,0.001734,0.055283
1722054296.7574,2024-07-26 21:24:56.757,19,false,0.44356,-0.304138,0.582275,0.60968,0.871595,-0.451911,-0.141482,-0.045701,0.001707,0.055199
1722054296.7887,2024-07-26 21:24:56.788,20,false,0.443678,-0.304199,0.582153,0.60968,0.87892,-0.433356,-0.140993,-0.045721,0.001768,0.055148
1722054296.8199,2024-07-26 21:24:56.819,21,false,0.443846,-0.304321,0.582153,0.609497,0.880873,-0.439216,-0.138064,-0.04569,0.001665,0.05509
1722054296.8512,2024-07-26 21:24:56.851,22,false,0.44377,-0.304199,0.582275,0.609497,0.880873,-0.439216,-0.138064,-0.045662,0.001571,0.055037
1722054296.8824,2024-07-26 21:24:56.882,23,false,0.443678,-0.304199,0.582153,0.60968,0.883314,-0.436286,-0.126345,-0.045734,0.001549,0.055076
1722054296.9137,2024-07-26 21:24:56.913,24,false,0.443724,-0.304138,0.582214,0.609619,0.883314,-0.436286,-0.126345,-0.0458,0.001528,0.05511
1722054296.9449,2024-07-26 21:24:56.944,25,false,0.443591,-0.304199,0.582092,0.609802,0.894545,-0.431891,-0.134157,-0.045822,0.001412,0.055056
1722054296.9762,2024-07-26 21:24:56.976,26,false,0.443381,-0.304138,0.582092,0.609985,0.870619,-0.451423,-0.140505,-0.045842,0.00149,0.055068
1722054297.0074,2024-07-26 21:24:57.007,27,false,0.4433,-0.304016,0.582153,0.610046,0.870619,-0.451423,-0.140505,-0.04586,0.001561,0.055079
1722054297.0387,2024-07-26 21:24:57.038,28,false,0.443434,-0.303955,0.582275,0.609863,0.885267,-0.436286,-0.145388,-0.045766,0.001551,0.055162
1722054297.0699,2024-07-26 21:24:57.069,29,false,0.443354,-0.303955,0.582336,0.609863,0.884291,-0.435309,-0.146365,-0.04584,0.001628,0.055114
1722054297.1012,2024-07-26 21:24:57.101,30,false,0.44343,-0.303955,0.582214,0.609924,0.884291,-0.435309,-0.146365,-0.045907,0.001697,0.055072
1722054297.1324,2024-07-26 21:24:57.132,31,false,0.443506,-0.304077,0.582092,0.609924,0.872084,-0.438727,-0.137575,-0.045931,0.001674,0.055033
1722054297.1637,2024-07-26 21:24:57.163,0,false,0.443507,-0.304321,0.582092,0.609802,0.876967,-0.445075,-0.130251,-0.04605,0.001678,0.05506
1722054297.1949,2024-07-26 21:24:57.194,1,false,0.443518,-0.304321,0.582275,0.609619,0.876967,-0.445075,-0.130251,-0.046157,0.001681,0.055084
1722054297.2262,2024-07-26 21:24:57.226,2,false,0.443518,-0.304443,0.582275,0.609558,0.877455,-0.437751,-0.143923,-0.046204,0.001671,0.055093
1722054297.2574,2024-07-26 21:24:57.257,3,false,0.443728,-0.304626,0.582275,0.609314,0.888197,-0.44361,-0.138064,-0.046162,0.001638,0.055065
1722054297.2887,2024-07-26 21:24:57.288,4,false,0.443865,-0.304688,0.582458,0.609009,0.869154,-0.448981,-0.129274,-0.04605,0.00167,0.055039
1722054297.3199,2024-07-26 21:24:57.319,5,false,0.443948,-0.304688,0.582458,0.608948,0.893568,-0.435798,-0.129274,-0.045998,0.001674,0.055004
1722054297.3512,2024-07-26 21:24:57.351,6,false,0.443945,-0.30481,0.582397,0.608948,0.887221,-0.441169,-0.131228,-0.045939,0.001702,0.054924
1722054297.3824,2024-07-26 21:24:57.382,7,false,0.443819,-0.304993,0.582397,0.608948,0.887221,-0.441169,-0.131228,-0.045984,0.00169,0.054913
1722054297.4137,2024-07-26 21:24:57.413,8,false,0.443819,-0.304993,0.582397,0.608948,0.883803,-0.438727,-0.131228,-0.045915,0.001692,0.054829
1722054297.4449,2024-07-26 21:24:57.444,9,false,0.443872,-0.304932,0.582581,0.608765,0.890639,-0.432868,-0.129763,-0.045877,0.001633,0.054839
1722054297.4762,2024-07-26 21:24:57.476,10,false,0.443872,-0.304932,0.582581,0.608765,0.890639,-0.432868,-0.129763,-0.045842,0.001579,0.054849
1722054297.5074,2024-07-26 21:24:57.507,11,false,0.443913,-0.305115,0.582581,0.608643,0.882826,-0.440681,-0.13611,-0.045848,0.001629,0.054979
1722054297.5387,2024-07-26 21:24:57.538,12,false,0.444032,-0.305176,0.582458,0.608643,0.875502,-0.432868,-0.131228,-0.045768,0.001722,0.05506
1722054297.5699,2024-07-26 21:24:57.569,13,false,0.44399,-0.305237,0.582458,0.608643,0.875502,-0.432868,-0.131228,-0.045695,0.001807,0.055133
1722054297.6012,2024-07-26 21:24:57.601,14,false,0.444069,-0.305359,0.582397,0.608582,0.882826,-0.422126,-0.137575,-0.045716,0.001711,0.055149
1722054297.6324,2024-07-26 21:24:57.632,15,false,0.444279,-0.305298,0.582397,0.608459,0.879408,-0.439216,-0.13611,-0.045795,0.001772,0.055128
1722054297.6637,2024-07-26 21:24:57.663,16,false,0.44399,-0.305237,0.582458,0.608643,0.882826,-0.440681,-0.13611,-0.045683,0.001827,0.055145
1722054297.6949,2024-07-26 21:24:57.694,17,false,0.444275,-0.30542,0.582336,0.608459,0.879896,-0.426032,-0.130739,-0.045583,0.001876,0.05516
1722054297.7262,2024-07-26 21:24:57.726,18,false,0.44416,-0.305359,0.58252,0.608398,0.879896,-0.430426,-0.133669,-0.045566,0.001884,0.055223
1722054297.7574,2024-07-26 21:24:57.757,19,false,0.444035,-0.305298,0.58252,0.608521,0.885756,-0.440681,-0.132204,-0.045672,0.001915,0.055218
1722054297.7887,2024-07-26 21:24:57.788,20,false,0.443913,-0.305115,0.582581,0.608643,0.885756,-0.440681,-0.132204,-0.045634,0.001992,0.05519
1722054297.8199,2024-07-26 21:24:57.819,21,false,0.443871,-0.305176,0.582581,0.608643,0.884291,-0.430915,-0.140993,-0.045538,0.001878,0.055164
1722054297.8512,2024-07-26 21:24:57.851,22,false,0.443921,-0.305115,0.582703,0.608521,0.883803,-0.446052,-0.133181,-0.045404,0.002008,0.055165
1722054297.8824,2024-07-26 21:24:57.882,23,false,0.443921,-0.305115,0.582703,0.608521,0.883803,-0.446052,-0.133181,-0.045282,0.002125,0.055166
1722054297.9137,2024-07-26 21:24:57.913,24,false,0.44384,-0.305115,0.582764,0.608521,0.885267,-0.444587,-0.132204,-0.045258,0.002107,0.055106
1722054297.9449,2024-07-26 21:24:57.944,25,false,0.443959,-0.305176,0.582642,0.608521,0.888197,-0.445075,-0.13611,-0.045323,0.002165,0.054979
1722054297.9762,2024-07-26 21:24:57.976,26,false,0.443833,-0.305237,0.582642,0.608582,0.888197,-0.445075,-0.13611,-0.045344,0.002217,0.055096
1722054298.0074,2024-07-26 21:24:58.007,27,false,0.444,-0.305237,0.582642,0.608459,0.892592,-0.437751,-0.143435,-0.045411,0.002191,0.055129
1722054298.0387,2024-07-26 21:24:58.038,28,false,0.444156,-0.305481,0.582458,0.608398,0.877943,-0.432868,-0.134646,-0.045472,0.002106,0.055244
1722054298.0699,2024-07-26 21:24:58.069,29,false,0.444076,-0.305481,0.58252,0.608398,0.891127,-0.440681,-0.13904,-0.045478,0.001944,0.055212
1722054298.1012,2024-07-26 21:24:58.101,30,false,0.444073,-0.305481,0.582458,0.608459,0.882826,-0.434821,-0.133181,-0.04552,0.001982,0.055136
1722054298.1324,2024-07-26 21:24:58.132,31,false,0.444069,-0.305603,0.582397,0.608459,0.871107,-0.437263,-0.133669,-0.045546,0.002101,0.055164
1722054298.1637,2024-07-26 21:24:58.163,0,false,0.44403,-0.305664,0.582458,0.608398,0.871107,-0.437263,-0.133669,-0.045569,0.002208,0.05519
1722054298.1949,2024-07-26 21:24:58.194,1,false,0.444069,-0.305603,0.582397,0.608459,0.882826,-0.441657,-0.132204,-0.04559,0.002122,0.055152
1722054298.2262,2024-07-26 21:24:58.226,2,false,0.444148,-0.305847,0.582336,0.608337,0.881849,-0.44361,-0.127321,-0.045535,0.002288,0.055154
1722054298.2574,2024-07-26 21:24:58.257,3,false,0.444106,-0.305786,0.582336,0.608398,0.881849,-0.44361,-0.127321,-0.045486,0.002279,0.055157
1722054298.2887,2024-07-26 21:24:58.288,4,false,0.444106,-0.305786,0.582336,0.608398,0.891615,-0.437751,-0.128786,-0.045576,0.002124,0.055183
1722054298.3199,2024-07-26 21:24:58.319,5,false,0.444148,-0.305847,0.582336,0.608337,0.879896,-0.438239,-0.129274,-0.045413,0.002022,0.055134
1722054298.3512,2024-07-26 21:24:58.351,6,false,0.444186,-0.305786,0.582275,0.608398,0.879896,-0.438239,-0.129274,-0.045267,0.001929,0.055089
1722054298.3824,2024-07-26 21:24:58.382,7,false,0.444144,-0.305847,0.582275,0.608398,0.885267,-0.424079,-0.142458,-0.045293,0.001822,0.055049
1722054298.4137,2024-07-26 21:24:58.413,8,false,0.44443,-0.305786,0.582153,0.608337,0.883803,-0.419196,-0.146365,-0.045256,0.001872,0.055135
1722054298.4449,2024-07-26 21:24:58.444,9,false,0.444186,-0.305786,0.582275,0.608398,0.891615,-0.437751,-0.128786,-0.045125,0.001831,0.055115
1722054298.4762,2024-07-26 21:24:58.476,10,false,0.444471,-0.305847,0.582153,0.608276,0.881849,-0.439704,-0.128298,-0.045007,0.001794,0.055096
1722054298.5074,2024-07-26 21:24:58.507,11,false,0.444391,-0.305969,0.582214,0.608215,0.899916,-0.439704,-0.134157,-0.045084,0.001627,0.055166
1722054298.5387,2024-07-26 21:24:58.538,12,false,0.444345,-0.30603,0.582153,0.608276,0.881361,-0.436774,-0.133669,-0.045166,0.001757,0.055203
1722054298.5699,2024-07-26 21:24:58.569,13,false,0.444304,-0.305969,0.582153,0.608337,0.881361,-0.436774,-0.133669,-0.045239,0.001875,0.055237
1722054298.6012,2024-07-26 21:24:58.601,14,false,0.444141,-0.305847,0.582214,0.608459,0.886244,-0.433845,-0.125856,-0.04533,0.001956,0.055268
1722054298.6324,2024-07-26 21:24:58.632,15,false,0.444349,-0.305908,0.582214,0.608276,0.885756,-0.441169,-0.120485,-0.045448,0.001992,0.055271
1722054298.6637,2024-07-26 21:24:58.663,16,false,0.444395,-0.305847,0.582275,0.608215,0.885756,-0.441169,-0.120485,-0.045505,0.00211,0.0552
1722054298.6949,2024-07-26 21:24:58.694,17,false,0.444399,-0.305847,0.582336,0.608154,0.874037,-0.433356,-0.136599,-0.045495,0.002217,0.055222
1722054298.7262,2024-07-26 21:24:58.726,18,false,0.444525,-0.305664,0.582336,0.608154,0.882826,-0.428473,-0.132204,-0.045426,0.002154,0.055364
1722054298.7574,2024-07-26 21:24:58.757,19,false,0.444559,-0.305725,0.582214,0.608215,0.882826,-0.428473,-0.132204,-0.045363,0.002097,0.055492
1722054298.7887,2024-07-26 21:24:58.788,20,false,0.44463,-0.306091,0.582031,0.608154,0.882826,-0.428473,-0.132204,-0.045405,0.002144,0.05557
1722054298.8199,2024-07-26 21:24:58.819,21,false,0.444665,-0.30603,0.581909,0.608276,0.87599,-0.433845,-0.126833,-0.045442,0.002186,0.05547
1722054298.8512,2024-07-26 21:24:58.851,22,false,0.444908,-0.30603,0.581787,0.608215,0.884291,-0.437263,-0.129763,-0.045317,0.002162,0.055526
1722054298.8824,2024-07-26 21:24:58.882,23,false,0.44495,-0.305969,0.581787,0.608215,0.884291,-0.437263,-0.129763,-0.045204,0.002141,0.055577
1722054298.9137,2024-07-26 21:24:58.913,24,false,0.444953,-0.306091,0.581848,0.608093,0.892592,-0.428473,-0.12195,-0.045225,0.002123,0.055598
1722054298.9449,2024-07-26 21:24:58.944,25,false,0.444835,-0.306152,0.58197,0.608032,0.896498,-0.437751,-0.138064,-0.045195,0.002118,0.055568
1722054298.9762,2024-07-26 21:24:58.976,26,false,0.444634,-0.306091,0.582092,0.608093,0.896498,-0.437751,-0.138064,-0.045216,0.002126,0.055492
1722054299.0074,2024-07-26 21:24:59.007,27,false,0.444596,-0.30603,0.582153,0.608093,0.876967,-0.427497,-0.133669,-0.045187,0.00206,0.055497
1722054299.0387,2024-07-26 21:24:59.038,28,false,0.444562,-0.305969,0.582275,0.608032,0.880385,-0.431891,-0.133181,-0.045209,0.002049,0.055367
1722054299.0699,2024-07-26 21:24:59.069,29,false,0.444607,-0.305908,0.582336,0.607971,0.880385,-0.431891,-0.133181,-0.045229,0.002039,0.055251
1722054299.1012,2024-07-26 21:24:59.101,30,false,0.444604,-0.305908,0.582275,0.608032,0.877943,-0.435309,-0.133669,-0.045174,0.002043,0.055378
1722054299.1324,2024-07-26 21:24:59.132,31,false,0.444725,-0.305847,0.582214,0.608032,0.891615,-0.436286,-0.132692,-0.045198,0.002058,0.055443
1722054299.1637,2024-07-26 21:24:59.163,0,false,0.444604,-0.305908,0.582275,0.608032,0.889662,-0.440681,-0.14197,-0.045268,0.002121,0.055428
1722054299.1949,2024-07-26 21:24:59.194,1,false,0.444604,-0.305908,0.582275,0.608032,0.885756,-0.432868,-0.133669,-0.045319,0.002129,0.055367
1722054299.2262,2024-07-26 21:24:59.226,2,false,0.444935,-0.305664,0.582214,0.607971,0.885756,-0.432868,-0.133669,-0.045365,0.002136,0.055311
1722054299.2574,2024-07-26 21:24:59.257,3,false,0.444977,-0.305603,0.582214,0.607971,0.884779,-0.434821,-0.137575,-0.045418,0.002191,0.055432
1722054299.2887,2024-07-26 21:24:59.288,4,false,0.445018,-0.305664,0.582214,0.60791,0.889174,-0.432868,-0.121462,-0.045491,0.002142,0.055443
1722054299.3199,2024-07-26 21:24:59.319,5,false,0.44506,-0.305603,0.582214,0.60791,0.889174,-0.432868,-0.121462,-0.045556,0.002099,0.055453
1722054299.3512,2024-07-26 21:24:59.351,6,false,0.444775,-0.305542,0.582336,0.608032,0.89015,-0.421637,-0.133181,-0.045554,0.002036,0.055438
1722054299.3824,2024-07-26 21:24:59.382,7,false,0.444775,-0.305542,0.582336,0.608032,0.876967,-0.449958,-0.137087,-0.045613,0.00204,0.055546
1722054299.4137,2024-07-26 21:24:59.413,8,false,0.444654,-0.305481,0.582397,0.608093,0.876967,-0.449958,-0.137087,-0.045666,0.002043,0.055643
1722054299.4449,2024-07-26 21:24:59.444,9,false,0.444574,-0.305481,0.582458,0.608093,0.885756,-0.43238,-0.135622,-0.045738,0.002059,0.055596
1722054299.4762,2024-07-26 21:24:59.476,10,false,0.444699,-0.305542,0.582458,0.607971,0.897475,-0.427497,-0.131716,-0.045864,0.002072,0.055432
1722054299.5074,2024-07-26 21:24:59.507,11,false,0.444824,-0.305481,0.582458,0.60791,0.897475,-0.427497,-0.131716,-0.045977,0.002085,0.055285
1722054299.5387,2024-07-26 21:24:59.538,12,false,0.444863,-0.30542,0.582397,0.607971,0.881849,-0.431403,-0.125856,-0.045884,0.001974,0.055237
1722054299.5699,2024-07-26 21:24:59.569,13,false,0.444539,-0.30542,0.582581,0.608032,0.87892,-0.442634,-0.136599,-0.04591,0.002009,0.055243
1722054299.6012,2024-07-26 21:24:59.601,14,false,0.44454,-0.305298,0.582581,0.608093,0.880873,-0.438727,-0.137575,-0.045921,0.001905,0.0552
1722054299.6324,2024-07-26 21:24:59.632,15,false,0.444582,-0.305115,0.582581,0.608154,0.887221,-0.420661,-0.131716,-0.045858,0.001886,0.05521
1722054299.6637,2024-07-26 21:24:59.663,16,false,0.444464,-0.305054,0.582703,0.608154,0.874525,-0.425055,-0.141482,-0.045813,0.001832,0.055231
1722054299.6949,2024-07-26 21:24:59.694,17,false,0.444384,-0.30481,0.582764,0.608276,0.874525,-0.425055,-0.141482,-0.045773,0.001783,0.05525
1722054299.7262,2024-07-26 21:24:59.726,18,false,0.444221,-0.304932,0.582825,0.608276,0.881849,-0.452888,-0.132204,-0.045847,0.001873,0.055255
1722054299.7574,2024-07-26 21:24:59.757,19,false,0.444168,-0.304993,0.582642,0.608459,0.880873,-0.43238,-0.148318,-0.045803,0.001881,0.055271
1722054299.7887,2024-07-26 21:24:59.788,20,false,0.44413,-0.304932,0.582703,0.608459,0.880873,-0.43238,-0.148318,-0.045764,0.001827,0.055323
1722054299.8199,2024-07-26 21:24:59.819,21,false,0.444054,-0.30481,0.582825,0.608459,0.883314,-0.448493,-0.135622,-0.045728,0.001803,0.055394
1722054299.8512,2024-07-26 21:24:59.851,22,false,0.443981,-0.304688,0.583008,0.608398,0.883314,-0.428962,-0.13904,-0.045807,0.001855,0.055323
1722054299.8824,2024-07-26 21:24:59.882,23,false,0.443901,-0.304565,0.583069,0.608459,0.883314,-0.428962,-0.13904,-0.045877,0.001901,0.05526
1722054299.9137,2024-07-26 21:24:59.913,24,false,0.443939,-0.304504,0.583008,0.608521,0.880873,-0.441657,-0.136599,-0.045842,0.001919,0.055288
1722054299.9449,2024-07-26 21:24:59.944,25,false,0.443852,-0.304382,0.582947,0.608704,0.884291,-0.439704,-0.13611,-0.045921,0.001983,0.055216
1722054299.9762,2024-07-26 21:24:59.976,26,false,0.443901,-0.304565,0.583069,0.608459,0.883314,-0.448493,-0.135622,-0.046029,0.001882,0.055297
1722054300.0074,2024-07-26 21:25:00.007,27,false,0.443817,-0.304321,0.583069,0.608643,0.880385,-0.439216,-0.132204,-0.046126,0.001914,0.055163
1722054300.0387,2024-07-26 21:25:00.038,28,false,0.443782,-0.304138,0.583191,0.608643,0.876967,-0.444587,-0.137575,-0.046091,0.001942,0.055128
1722054300.0699,2024-07-26 21:25:00.069,29,false,0.443866,-0.304138,0.583191,0.608582,0.888685,-0.426032,-0.143923,-0.045986,0.001821,0.055133
1722054300.1012,2024-07-26 21:25:00.101,30,false,0.443702,-0.30426,0.583252,0.608582,0.888685,-0.426032,-0.143923,-0.045892,0.001712,0.055137
1722054300.1324,2024-07-26 21:25:00.132,31,false,0.443622,-0.304138,0.583313,0.608643,0.879896,-0.433356,-0.131228,-0.045783,0.001761,0.055227
1722054300.1637,2024-07-26 21:25:00.163,0,false,0.443496,-0.304077,0.583313,0.608765,0.876967,-0.427985,-0.133669,-0.045868,0.001805,0.055222
1722054300.1949,2024-07-26 21:25:00.194,1,false,0.443419,-0.303833,0.583435,0.608826,0.876967,-0.427985,-0.133669,-0.045834,0.001856,0.055193
1722054300.2262,2024-07-26 21:25:00.226,2,false,0.443426,-0.303711,0.583557,0.608765,0.872084,-0.437751,-0.135134,-0.045841,0.001902,0.055167
1722054300.2574,2024-07-26 21:25:00.257,3,false,0.443467,-0.303528,0.583557,0.608826,0.884291,-0.431403,-0.137087,-0.04581,0.001981,0.055204
1722054300.2887,2024-07-26 21:25:00.288,4,false,0.44355,-0.303284,0.583557,0.608887,0.884291,-0.431403,-0.137087,-0.04577,0.001856,0.055287
1722054300.3199,2024-07-26 21:25:00.319,5,false,0.443585,-0.303223,0.583435,0.609009,0.882826,-0.439704,-0.137087,-0.045783,0.001902,0.055252
1722054300.3512,2024-07-26 21:25:00.351,6,false,0.443586,-0.303467,0.583435,0.608887,0.873549,-0.439704,-0.138552,-0.045807,0.001785,0.055244
1722054300.3824,2024-07-26 21:25:00.382,7,false,0.443495,-0.303589,0.583313,0.609009,0.877943,-0.445563,-0.137575,-0.045938,0.001717,0.055188
1722054300.4137,2024-07-26 21:25:00.413,8,false,0.44345,-0.30365,0.583252,0.60907,0.878431,-0.44361,-0.135622,-0.045946,0.001679,0.055248
1722054300.4449,2024-07-26 21:25:00.444,9,false,0.443534,-0.30365,0.583252,0.609009,0.895033,-0.447028,-0.146853,-0.045795,0.00167,0.055143
1722054300.4762,2024-07-26 21:25:00.476,10,false,0.443576,-0.303589,0.583252,0.609009,0.895033,-0.447028,-0.146853,-0.045659,0.001662,0.055049
1722054300.5074,2024-07-26 21:25:00.507,11,false,0.443579,-0.303589,0.583313,0.608948,0.883803,-0.442145,-0.143435,-0.045598,0.001569,0.055025
1722054300.5387,2024-07-26 21:25:00.538,12,false,0.443534,-0.30365,0.583252,0.609009,0.894057,-0.443122,-0.146853,-0.045542,0.001668,0.054943
1722054300.5699,2024-07-26 21:25:00.569,13,false,0.443492,-0.303589,0.583252,0.60907,0.894057,-0.443122,-0.146853,-0.045578,0.001611,0.054942
1722054300.6012,2024-07-26 21:25:00.601,14,false,0.443404,-0.303589,0.583191,0.609192,0.887221,-0.451423,-0.140505,-0.045525,0.001548,0.054929
1722054300.6324,2024-07-26 21:25:00.632,15,false,0.443446,-0.303406,0.583191,0.609253,0.884291,-0.434333,-0.122927,-0.045526,0.001662,0.054905
1722054300.6637,2024-07-26 21:25:00.663,16,false,0.443407,-0.303345,0.583252,0.609253,0.884291,-0.434333,-0.122927,-0.045526,0.001764,0.054883
1722054300.6949,2024-07-26 21:25:00.694,17,false,0.443285,-0.303284,0.583313,0.609314,0.87306,-0.454841,-0.12781,-0.045515,0.001844,0.054937
1722054300.7262,2024-07-26 21:25:00.726,18,false,0.443446,-0.303406,0.583191,0.609253,0.87306,-0.454841,-0.12781,-0.045602,0.001818,0.055046
1722054300.7574,2024-07-26 21:25:00.757,19,false,0.443327,-0.303223,0.583313,0.609314,0.87599,-0.436774,-0.141482,-0.04562,0.001795,0.055084
1722054300.7887,2024-07-26 21:25:00.788,20,false,0.44333,-0.303223,0.583374,0.609253,0.900893,-0.434333,-0.138064,-0.045501,0.001689,0.055117
1722054300.8199,2024-07-26 21:25:00.819,21,false,0.443369,-0.303284,0.583313,0.609253,0.900893,-0.434333,-0.138064,-0.045394,0.001593,0.055148
1722054300.8512,2024-07-26 21:25:00.851,22,false,0.443449,-0.303284,0.583252,0.609253,0.872572,-0.448981,-0.13904,-0.045384,0.001605,0.055285
1722054300.8824,2024-07-26 21:25:00.882,23,false,0.443526,-0.303284,0.58313,0.609314,0.869642,-0.442634,-0.1449,-0.045386,0.001664,0.055213
1722054300.9137,2024-07-26 21:25:00.913,24,false,0.443525,-0.303162,0.58313,0.609375,0.869642,-0.442634,-0.1449,-0.045389,0.001717,0.055148
1722054300.9449,2024-07-26 21:25:00.944,25,false,0.443361,-0.303162,0.583191,0.609436,0.884291,-0.442145,-0.134646,-0.045538,0.001753,0.055249
1722054300.9762,2024-07-26 21:25:00.976,26,false,0.443151,-0.303101,0.583191,0.609619,0.875502,-0.442634,-0.13904,-0.045488,0.001675,0.055205
1722054301.0074,2024-07-26 21:25:01.007,27,false,0.443196,-0.30304,0.583252,0.609558,0.875502,-0.442634,-0.13904,-0.045444,0.001606,0.055166
1722054301.0387,2024-07-26 21:25:01.038,28,false,0.443119,-0.302917,0.583374,0.609558,0.880873,-0.450446,-0.131228,-0.045477,0.001518,0.055167
1722054301.0699,2024-07-26 21:25:01.069,29,false,0.443087,-0.302734,0.583557,0.609497,0.87599,-0.448493,-0.145876,-0.045471,0.001464,0.055107
1722054301.1012,2024-07-26 21:25:01.101,30,false,0.442919,-0.302734,0.583557,0.609619,0.87599,-0.448493,-0.145876,-0.045465,0.001415,0.055053
1722054301.1324,2024-07-26 21:25:01.132,31,false,0.442923,-0.302734,0.583618,0.609558,0.87599,-0.448493,-0.145876,-0.045459,0.001371,0.055004
1722054301.1637,2024-07-26 21:25:01.163,0,false,0.442919,-0.302734,0.583557,0.609619,0.884779,-0.442145,-0.138552,-0.045528,0.001381,0.055094
1722054301.1949,2024-07-26 21:25:01.194,1,false,0.442878,-0.302795,0.583557,0.609619,0.883803,-0.456794,-0.132692,-0.045553,0.001462,0.055103
1722054301.2262,2024-07-26 21:25:01.226,2,false,0.442748,-0.302856,0.583496,0.609741,0.883803,-0.456794,-0.132692,-0.045575,0.001536,0.05511
1722054301.2574,2024-07-26 21:25:01.257,3,false,0.442787,-0.30304,0.583435,0.60968,0.87892,-0.442634,-0.142458,-0.045681,0.001541,0.055141
1722054301.2887,2024-07-26 21:25:01.288,4,false,0.442707,-0.303162,0.583496,0.609619,0.880873,-0.444587,-0.126833,-0.045727,0.001558,0.055035
1722054301.3199,2024-07-26 21:25:01.319,5,false,0.442581,-0.303101,0.583496,0.609741,0.880873,-0.444587,-0.126833,-0.045683,0.001549,0.055025
1722054301.3512,2024-07-26 21:25:01.351,6,false,0.442501,-0.303101,0.583557,0.609741,0.873549,-0.451911,-0.145388,-0.045668,0.001601,0.054991
1722054301.3824,2024-07-26 21:25:01.382,7,false,0.442416,-0.303101,0.583557,0.609802,0.875502,-0.448005,-0.14197,-0.045703,0.001575,0.05501
1722054301.4137,2024-07-26 21:25:01.413,8,false,0.442413,-0.303101,0.583496,0.609863,0.875502,-0.448005,-0.14197,-0.045735,0.001552,0.055026
1722054301.4449,2024-07-26 21:25:01.444,9,false,0.442255,-0.302979,0.583679,0.609863,0.872572,-0.441169,-0.139528,-0.045691,0.001568,0.055053
1722054301.4762,2024-07-26 21:25:01.476,10,false,0.442216,-0.302917,0.58374,0.609863,0.876967,-0.435798,-0.1449,-0.04565,0.001643,0.055017
1722054301.5074,2024-07-26 21:25:01.507,11,false,0.442413,-0.303101,0.583496,0.609863,0.873549,-0.451911,-0.145388,-0.045675,0.001625,0.055009
1722054301.5387,2024-07-26 21:25:01.538,12,false,0.442048,-0.302917,0.58374,0.609985,0.872084,-0.449958,-0.130251,-0.045698,0.001609,0.055001
1722054301.5699,2024-07-26 21:25:01.569,13,false,0.442048,-0.302917,0.58374,0.609985,0.887709,-0.452399,-0.137087,-0.045706,0.001705,0.055018
1722054301.6012,2024-07-26 21:25:01.601,14,false,0.442128,-0.302917,0.583679,0.609985,0.87013,-0.439216,-0.132204,-0.045713,0.001693,0.055034
1722054301.6324,2024-07-26 21:25:01.632,15,false,0.442461,-0.302795,0.583618,0.609863,0.87013,-0.439216,-0.132204,-0.045719,0.001682,0.055049
1722054301.6637,2024-07-26 21:25:01.663,16,false,0.442583,-0.302734,0.583557,0.609863,0.89015,-0.429938,-0.12488,-0.045798,0.001624,0.055037
1722054301.6949,2024-07-26 21:25:01.694,17,false,0.442587,-0.302734,0.583618,0.609802,0.876478,-0.42652,-0.135622,-0.045747,0.001669,0.055026
1722054301.7262,2024-07-26 21:25:01.726,18,false,0.442587,-0.302856,0.583618,0.609741,0.876478,-0.42652,-0.135622,-0.04575,0.001819,0.055005
1722054301.7574,2024-07-26 21:25:01.757,19,false,0.442581,-0.302979,0.583496,0.609802,0.886732,-0.442145,-0.138064,-0.045765,0.001992,0.054998
1722054301.7887,2024-07-26 21:25:01.788,20,false,0.442622,-0.302795,0.583496,0.609863,0.879896,-0.440192,-0.129274,-0.045693,0.00189,0.054918
1722054301.8199,2024-07-26 21:25:01.819,21,false,0.442576,-0.302734,0.583435,0.609985,0.879896,-0.440192,-0.129274,-0.045628,0.001799,0.054846
1722054301.8512,2024-07-26 21:25:01.851,22,false,0.442664,-0.302246,0.583557,0.610046,0.879896,-0.440192,-0.129274,-0.04557,0.001716,0.054781
1722054301.8824,2024-07-26 21:25:01.882,23,false,0.442787,-0.302185,0.583496,0.610046,0.884779,-0.436774,-0.137087,-0.045749,0.001679,0.054821
1722054301.9137,2024-07-26 21:25:01.913,24,false,0.442738,-0.302246,0.583374,0.610168,0.880873,-0.442145,-0.143435,-0.045642,0.001719,0.054893
1722054301.9449,2024-07-26 21:25:01.944,25,false,0.442695,-0.302185,0.583374,0.610229,0.880873,-0.442145,-0.143435,-0.045582,0.001864,0.054946
1722054301.9762,2024-07-26 21:25:01.976,26,false,0.442741,-0.302246,0.583435,0.610107,0.876967,-0.438239,-0.131228,-0.045492,0.001788,0.055042
1722054302.0074,2024-07-26 21:25:02.007,27,false,0.442787,-0.302307,0.583496,0.609985,0.880385,-0.454841,-0.129763,-0.045582,0.001682,0.055056
1722054302.0387,2024-07-26 21:25:02.038,28,false,0.442612,-0.302429,0.583374,0.610168,0.880385,-0.454841,-0.129763,-0.045662,0.001587,0.055068
1722054302.0699,2024-07-26 21:25:02.069,29,false,0.442566,-0.302368,0.583313,0.610291,0.876478,-0.44947,-0.133669,-0.045686,0.001636,0.055152
1722054302.1012,2024-07-26 21:25:02.101,30,false,0.44265,-0.302368,0.583313,0.610229,0.896498,-0.434821,-0.13904,-0.045646,0.00168,0.05513
1722054302.1324,2024-07-26 21:25:02.132,31,false,0.442619,-0.302307,0.583496,0.610107,0.896498,-0.434821,-0.13904,-0.045732,0.001658,0.055086
1722054302.1637,2024-07-26 21:25:02.163,0,false,0.442492,-0.302246,0.583496,0.610229,0.878431,-0.440681,-0.12781,-0.045737,0.001712,0.055156
1722054302.1949,2024-07-26 21:25:02.194,1,false,0.442282,-0.302307,0.583496,0.610352,0.871595,-0.439704,-0.123903,-0.045753,0.001627,0.055085
1722054302.2262,2024-07-26 21:25:02.226,2,false,0.442118,-0.302429,0.583557,0.610352,0.871595,-0.439704,-0.123903,-0.045646,0.001635,0.055106
1722054302.2574,2024-07-26 21:25:02.257,3,false,0.442492,-0.302246,0.583496,0.610229,0.877943,-0.441657,-0.137087,-0.045622,0.001606,0.055284
1722054302.2887,2024-07-26 21:25:02.288,4,false,0.442156,-0.302368,0.583496,0.610413,0.877943,-0.441657,-0.137087,-0.045613,0.001616,0.05531
1722054302.3199,2024-07-26 21:25:02.319,5,false,0.44195,-0.302429,0.583557,0.610474,0.877943,-0.44361,-0.139528,-0.045642,0.001662,0.05537
1722054302.3512,2024-07-26 21:25:02.351,6,false,0.442038,-0.302429,0.583618,0.610352,0.872084,-0.448981,-0.131228,-0.045607,0.001606,0.055448
1722054302.3824,2024-07-26 21:25:02.382,7,false,0.44216,-0.302368,0.583557,0.610352,0.872084,-0.448981,-0.131228,-0.045575,0.001555,0.055519
1722054302.4137,2024-07-26 21:25:02.413,8,false,0.442238,-0.302612,0.583435,0.610291,0.881849,-0.443122,-0.14197,-0.045485,0.00157,0.055411
1722054302.4449,2024-07-26 21:25:02.444,9,false,0.442401,-0.302856,0.583313,0.610168,0.885267,-0.434333,-0.139528,-0.045441,0.001548,0.055327
1722054302.4762,2024-07-26 21:25:02.476,10,false,0.442562,-0.302979,0.583191,0.610107,0.885267,-0.434333,-0.139528,-0.045401,0.001527,0.055251
1722054302.5074,2024-07-26 21:25:02.507,11,false,0.442685,-0.30304,0.58313,0.610046,0.880385,-0.445075,-0.135134,-0.045354,0.001582,0.055317
1722054302.5387,2024-07-26 21:25:02.538,12,false,0.44272,-0.303223,0.583008,0.610046,0.885756,-0.439704,-0.137575,-0.045359,0.001497,0.055242
1722054302.5699,2024-07-26 21:25:02.569,13,false,0.442847,-0.303284,0.583008,0.609924,0.885756,-0.439704,-0.137575,-0.045364,0.00142,0.055174
1722054302.6012,2024-07-26 21:25:02.601,14,false,0.442767,-0.303406,0.583069,0.609863,0.896498,-0.436774,-0.135622,-0.045381,0.001486,0.055186
1722054302.6324,2024-07-26 21:25:02.632,15,false,0.442347,-0.30365,0.583069,0.610046,0.888685,-0.431403,-0.134157,-0.045457,0.001508,0.055076
1722054302.6637,2024-07-26 21:25:02.663,16,false,0.442228,-0.303589,0.583191,0.610046,0.877943,-0.424567,-0.138064,-0.045502,0.001382,0.054915
1722054302.6949,2024-07-26 21:25:02.694,17,false,0.44228,-0.303406,0.583374,0.609924,0.884779,-0.43238,-0.139528,-0.045456,0.001341,0.055002
1722054302.7262,2024-07-26 21:25:02.726,18,false,0.442613,-0.303284,0.583313,0.609802,0.881361,-0.454353,-0.131228,-0.045403,0.001378,0.054971
1722054302.7574,2024-07-26 21:25:02.757,19,false,0.442613,-0.303284,0.583313,0.609802,0.881361,-0.454353,-0.131228,-0.045355,0.001411,0.054942
1722054302.7887,2024-07-26 21:25:02.788,20,false,0.442655,-0.303345,0.583313,0.609741,0.875013,-0.439704,-0.123415,-0.045469,0.001417,0.055002
1722054302.8199,2024-07-26 21:25:02.819,21,false,0.442733,-0.303589,0.583191,0.60968,0.882826,-0.448981,-0.143923,-0.045501,0.001373,0.054983
1722054302.8512,2024-07-26 21:25:02.851,22,false,0.442898,-0.303833,0.58313,0.609497,0.882826,-0.448981,-0.143923,-0.045528,0.001333,0.054966
1722054302.8824,2024-07-26 21:25:02.882,23,false,0.442898,-0.303955,0.58313,0.609436,0.871595,-0.44361,-0.138552,-0.04559,0.001407,0.054853
1722054302.9137,2024-07-26 21:25:02.913,24,false,0.443104,-0.304016,0.583069,0.609314,0.884291,-0.442634,-0.137087,-0.04567,0.001425,0.054971
1722054302.9449,2024-07-26 21:25:02.944,25,false,0.443311,-0.304199,0.583008,0.609131,0.884291,-0.442634,-0.137087,-0.045741,0.001441,0.055077
1722054302.9762,2024-07-26 21:25:02.976,26,false,0.443269,-0.304382,0.583008,0.60907,0.883314,-0.437263,-0.130739,-0.045708,0.001493,0.05505
1722054303.0074,2024-07-26 21:25:03.007,27,false,0.44344,-0.304382,0.583069,0.608887,0.880385,-0.433356,-0.133669,-0.045605,0.00149,0.055038
1722054303.0387,2024-07-26 21:25:03.038,28,false,0.443311,-0.304199,0.583008,0.609131,0.871595,-0.44361,-0.138552,-0.045598,0.001512,0.054979
1722054303.0699,2024-07-26 21:25:03.069,29,false,0.443356,-0.304504,0.583069,0.608887,0.890639,-0.437751,-0.137575,-0.045579,0.001556,0.054938
1722054303.1012,2024-07-26 21:25:03.101,30,false,0.443436,-0.304626,0.583008,0.608826,0.882826,-0.433356,-0.140505,-0.045563,0.001596,0.054986
1722054303.1324,2024-07-26 21:25:03.132,31,false,0.443433,-0.304626,0.582947,0.608887,0.89015,-0.427985,-0.125368,-0.045547,0.001534,0.055029
1722054303.1637,2024-07-26 21:25:03.163,0,false,0.443353,-0.304626,0.583008,0.608887,0.89015,-0.427985,-0.125368,-0.045534,0.001478,0.055069
1722054303.1949,2024-07-26 21:25:03.194,1,false,0.443066,-0.304688,0.58313,0.608948,0.881849,-0.436774,-0.13611,-0.045595,0.001477,0.055055
1722054303.2262,2024-07-26 21:25:03.226,2,false,0.443234,-0.304565,0.58313,0.608887,0.885267,-0.456306,-0.13611,-0.045637,0.001488,0.055092
1722054303.2574,2024-07-26 21:25:03.257,3,false,0.443318,-0.304565,0.58313,0.608826,0.885267,-0.456306,-0.13611,-0.045615,0.001437,0.055124
1722054303.2887,2024-07-26 21:25:03.288,4,false,0.44352,-0.304626,0.583008,0.608765,0.877455,-0.445563,-0.141482,-0.045558,0.001452,0.055154
1722054303.3199,2024-07-26 21:25:03.319,5,false,0.44344,-0.304749,0.583069,0.608704,0.883803,-0.442145,-0.133669,-0.04558,0.001465,0.055156
1722054303.3512,2024-07-26 21:25:03.351,6,false,0.443398,-0.30481,0.583069,0.608704,0.883803,-0.442145,-0.133669,-0.045612,0.001587,0.055195
1722054303.3824,2024-07-26 21:25:03.382,7,false,0.443447,-0.304749,0.583191,0.608582,0.886732,-0.437263,-0.137575,-0.045591,0.001624,0.055254
1722054303.4137,2024-07-26 21:25:03.413,8,false,0.443517,-0.304749,0.582947,0.608765,0.886244,-0.418219,-0.133181,-0.045671,0.001498,0.055149
1722054303.4449,2024-07-26 21:25:03.444,9,false,0.443436,-0.304749,0.583008,0.608765,0.891127,-0.42652,-0.126833,-0.045535,0.001641,0.055225
1722054303.4762,2024-07-26 21:25:03.476,10,false,0.443475,-0.304688,0.582947,0.608826,0.881361,-0.444099,-0.14197,-0.045572,0.001624,0.055196
1722054303.5074,2024-07-26 21:25:03.507,11,false,0.443394,-0.30481,0.583008,0.608765,0.880385,-0.433356,-0.130251,-0.045519,0.00162,0.055218
1722054303.5387,2024-07-26 21:25:03.538,12,false,0.443394,-0.30481,0.583008,0.608765,0.880385,-0.433356,-0.130251,-0.045471,0.001617,0.055238
1722054303.5699,2024-07-26 21:25:03.569,13,false,0.443394,-0.30481,0.583008,0.608765,0.878431,-0.440192,-0.132204,-0.045563,0.001589,0.05511
1722054303.6012,2024-07-26 21:25:03.601,14,false,0.443387,-0.304932,0.582886,0.608826,0.878431,-0.434821,-0.133669,-0.045621,0.001662,0.055092
1722054303.6324,2024-07-26 21:25:03.632,15,false,0.443632,-0.30481,0.582764,0.608826,0.878431,-0.434821,-0.133669,-0.045673,0.001728,0.055076
1722054303.6637,2024-07-26 21:25:03.663,16,false,0.443513,-0.304871,0.582886,0.608765,0.887709,-0.433845,-0.129274,-0.045708,0.001714,0.05505
1722054303.6949,2024-07-26 21:25:03.694,17,false,0.443558,-0.30481,0.582947,0.608704,0.881361,-0.44654,-0.138064,-0.045678,0.001616,0.055148
1722054303.7262,2024-07-26 21:25:03.726,18,false,0.443681,-0.304749,0.582886,0.608704,0.881361,-0.44654,-0.138064,-0.045652,0.001527,0.055236
1722054303.7574,2024-07-26 21:25:03.757,19,false,0.443722,-0.304688,0.582886,0.608704,0.889174,-0.448005,-0.131716,-0.045554,0.001546,0.055242
1722054303.7887,2024-07-26 21:25:03.788,20,false,0.443761,-0.304626,0.582825,0.608765,0.882826,-0.446052,-0.131228,-0.045491,0.001562,0.055211
1722054303.8199,2024-07-26 21:25:03.819,21,false,0.443681,-0.304749,0.582886,0.608704,0.887709,-0.433845,-0.129274,-0.045422,0.001564,0.055208
1722054303.8512,2024-07-26 21:25:03.851,22,false,0.443803,-0.304565,0.582825,0.608765,0.886244,-0.441169,-0.141482,-0.04536,0.001567,0.055205
1722054303.8824,2024-07-26 21:25:03.882,23,false,0.443761,-0.304749,0.582825,0.608704,0.884779,-0.448493,-0.140017,-0.045402,0.00163,0.055263
1722054303.9137,2024-07-26 21:25:03.913,24,false,0.443841,-0.304749,0.582764,0.608704,0.885756,-0.435309,-0.135134,-0.045415,0.001699,0.055267
1722054303.9449,2024-07-26 21:25:03.944,25,false,0.443837,-0.304749,0.582703,0.608765,0.885756,-0.435309,-0.135134,-0.045427,0.001761,0.05527
1722054303.9762,2024-07-26 21:25:03.976,26,false,0.444119,-0.304688,0.58252,0.608765,0.879896,-0.438239,-0.140993,-0.045462,0.001719,0.055285
1722054304.0074,2024-07-26 21:25:04.007,27,false,0.444039,-0.304688,0.582581,0.608765,0.877455,-0.445563,-0.138552,-0.045518,0.001828,0.055274
1722054304.0387,2024-07-26 21:25:04.038,28,false,0.444078,-0.304749,0.58252,0.608765,0.877455,-0.445563,-0.138552,-0.045507,0.002023,0.055325
1722054304.0699,2024-07-26 21:25:04.069,29,false,0.444245,-0.304749,0.58252,0.608643,0.884291,-0.449958,-0.139528,-0.045607,0.002114,0.055262
1722054304.1012,2024-07-26 21:25:04.101,30,false,0.444328,-0.304871,0.58252,0.608521,0.883803,-0.434821,-0.137087,-0.045575,0.002171,0.055204
1722054304.1324,2024-07-26 21:25:04.132,31,false,0.44445,-0.304932,0.582458,0.608459,0.883803,-0.434821,-0.137087,-0.045596,0.002174,0.055043
1722054304.1637,2024-07-26 21:25:04.163,0,false,0.44462,-0.305298,0.58252,0.608093,0.883803,-0.434821,-0.137087,-0.045614,0.002176,0.054898
1722054304.1949,2024-07-26 21:25:04.194,1,false,0.444491,-0.305481,0.582458,0.608154,0.883314,-0.432868,-0.133181,-0.045606,0.002313,0.054938
1722054304.2262,2024-07-26 21:25:04.226,2,false,0.444445,-0.305542,0.582397,0.608215,0.89601,-0.431891,-0.129763,-0.045586,0.002338,0.055132
1722054304.2574,2024-07-26 21:25:04.257,3,false,0.444362,-0.305542,0.582397,0.608276,0.89601,-0.431891,-0.129763,-0.045569,0.00236,0.055308
1722054304.2887,2024-07-26 21:25:04.288,4,false,0.444567,-0.305603,0.582336,0.608154,0.881361,-0.436286,-0.122927,-0.04565,0.002283,0.055356
1722054304.3199,2024-07-26 21:25:04.319,5,false,0.444692,-0.305542,0.582336,0.608093,0.883314,-0.440192,-0.124392,-0.045614,0.002201,0.05535
1722054304.3512,2024-07-26 21:25:04.351,6,false,0.444609,-0.305542,0.582336,0.608154,0.883314,-0.440192,-0.124392,-0.045582,0.002127,0.055345
1722054304.3824,2024-07-26 21:25:04.382,7,false,0.44481,-0.305481,0.582214,0.608154,0.884779,-0.439704,-0.143923,-0.045613,0.002086,0.055304
1722054304.4137,2024-07-26 21:25:04.413,8,false,0.444806,-0.305603,0.582153,0.608154,0.883803,-0.43238,-0.130739,-0.045581,0.001987,0.055364
1722054304.4449,2024-07-26 21:25:04.444,9,false,0.444928,-0.305664,0.582092,0.608093,0.883803,-0.43238,-0.130739,-0.045552,0.001898,0.055419
1722054304.4762,2024-07-26 21:25:04.476,10,false,0.44497,-0.305603,0.582092,0.608093,0.881361,-0.437263,-0.135622,-0.045501,0.001965,0.055333
1722054304.5074,2024-07-26 21:25:04.507,11,false,0.444894,-0.305359,0.582214,0.608154,0.87599,-0.447028,-0.134646,-0.045529,0.001866,0.055318
1722054304.5387,2024-07-26 21:25:04.538,12,false,0.445096,-0.305298,0.582092,0.608154,0.87599,-0.447028,-0.134646,-0.045554,0.001777,0.055304
1722054304.5699,2024-07-26 21:25:04.569,13,false,0.44497,-0.305603,0.582092,0.608093,0.898451,-0.431891,-0.127321,-0.045551,0.001648,0.055303
1722054304.6012,2024-07-26 21:25:04.601,14,false,0.445259,-0.305176,0.582031,0.608154,0.898451,-0.431891,-0.127321,-0.04555,0.001532,0.055303
1722054304.6324,2024-07-26 21:25:04.632,15,false,0.445305,-0.305115,0.582092,0.608093,0.873549,-0.436286,-0.133181,-0.045536,0.001696,0.0554
1722054304.6637,2024-07-26 21:25:04.663,16,false,0.445305,-0.304993,0.582092,0.608154,0.877455,-0.436774,-0.124392,-0.045596,0.001673,0.055243
1722054304.6949,2024-07-26 21:25:04.694,17,false,0.445176,-0.305054,0.582031,0.608276,0.877455,-0.436774,-0.124392,-0.045651,0.001652,0.055102
1722054304.7262,2024-07-26 21:25:04.726,18,false,0.445336,-0.304932,0.581909,0.608337,0.886244,-0.433845,-0.149783,-0.0457,0.001658,0.055061
1722054304.7574,2024-07-26 21:25:04.757,19,false,0.445298,-0.304749,0.58197,0.608398,0.885267,-0.44654,-0.124392,-0.045659,0.0017,0.055109
1722054304.7887,2024-07-26 21:25:04.788,20,false,0.445302,-0.304626,0.582031,0.608398,0.885267,-0.44654,-0.124392,-0.045781,0.001798,0.055189
1722054304.8199,2024-07-26 21:25:04.819,21,false,0.445351,-0.304443,0.582153,0.608337,0.882826,-0.435798,-0.139528,-0.045732,0.001826,0.055225
1722054304.8512,2024-07-26 21:25:04.851,22,false,0.445146,-0.304382,0.582214,0.608459,0.87306,-0.435798,-0.136599,-0.0457,0.001802,0.05522
1722054304.8824,2024-07-26 21:25:04.882,23,false,0.445226,-0.304382,0.582153,0.608459,0.87306,-0.435798,-0.136599,-0.045671,0.001781,0.055215
1722054304.9137,2024-07-26 21:25:04.913,24,false,0.445423,-0.304321,0.58197,0.608521,0.880385,-0.437751,-0.131716,-0.045694,0.001749,0.055187
1722054304.9449,2024-07-26 21:25:04.944,25,false,0.445396,-0.304138,0.582214,0.608398,0.884779,-0.439704,-0.140505,-0.045665,0.001733,0.05521
1722054304.9762,2024-07-26 21:25:04.976,26,false,0.445313,-0.304138,0.582214,0.608459,0.874037,-0.441169,-0.136599,-0.045567,0.00173,0.055158
1722054305.0074,2024-07-26 21:25:05.007,27,false,0.445233,-0.304016,0.582275,0.608521,0.874525,-0.436774,-0.13904,-0.0456,0.001704,0.055172
1722054305.0387,2024-07-26 21:25:05.038,28,false,0.445233,-0.303894,0.582275,0.608582,0.889174,-0.42945,-0.12781,-0.045691,0.001582,0.055124
1722054305.0699,2024-07-26 21:25:05.069,29,false,0.445066,-0.303894,0.582275,0.608704,0.889174,-0.42945,-0.12781,-0.045773,0.001473,0.05508
1722054305.1012,2024-07-26 21:25:05.101,30,false,0.444986,-0.303772,0.582336,0.608765,0.882826,-0.450446,-0.139528,-0.045614,0.001521,0.055114
1722054305.1324,2024-07-26 21:25:05.132,31,false,0.445024,-0.303711,0.582275,0.608826,0.880873,-0.444587,-0.135134,-0.045655,0.001405,0.055182
1722054305.1637,2024-07-26 21:25:05.163,0,false,0.445031,-0.303589,0.582397,0.608765,0.880873,-0.444587,-0.135134,-0.045692,0.001302,0.055242
1722054305.1949,2024-07-26 21:25:05.194,1,false,0.444947,-0.303467,0.582397,0.608887,0.880873,-0.448005,-0.128786,-0.045664,0.001391,0.055175
1722054305.2262,2024-07-26 21:25:05.226,2,false,0.444902,-0.303406,0.582336,0.609009,0.89601,-0.448005,-0.139528,-0.045651,0.001362,0.055211
1722054305.2574,2024-07-26 21:25:05.257,3,false,0.444905,-0.303406,0.582397,0.608948,0.89601,-0.448005,-0.139528,-0.045529,0.00136,0.055269
1722054305.2887,2024-07-26 21:25:05.288,4,false,0.444871,-0.303345,0.58252,0.608887,0.888685,-0.434333,-0.137087,-0.045566,0.00137,0.055296
1722054305.3199,2024-07-26 21:25:05.319,5,false,0.444874,-0.303223,0.582581,0.608887,0.877943,-0.434333,-0.130739,-0.045673,0.001453,0.055162
1722054305.3512,2024-07-26 21:25:05.351,6,false,0.444905,-0.303406,0.582397,0.608948,0.880873,-0.448005,-0.128786,-0.045646,0.001467,0.055127
1722054305.3824,2024-07-26 21:25:05.382,7,false,0.444874,-0.303223,0.582581,0.608887,0.874525,-0.442634,-0.13611,-0.045623,0.001479,0.055095
1722054305.4137,2024-07-26 21:25:05.413,8,false,0.444958,-0.303223,0.582581,0.608826,0.886732,-0.436286,-0.131228,-0.045699,0.001404,0.055104
1722054305.4449,2024-07-26 21:25:05.444,9,false,0.444919,-0.303162,0.582642,0.608826,0.882826,-0.438239,-0.135622,-0.045658,0.001434,0.055209
1722054305.4762,2024-07-26 21:25:05.476,10,false,0.445086,-0.30304,0.582642,0.608765,0.882826,-0.438239,-0.135622,-0.045621,0.001462,0.055303
1722054305.5074,2024-07-26 21:25:05.507,11,false,0.445089,-0.30304,0.582703,0.608704,0.892592,-0.425055,-0.122927,-0.045551,0.001462,0.055242
1722054305.5387,2024-07-26 21:25:05.538,12,false,0.445208,-0.303101,0.582581,0.608704,0.888197,-0.443122,-0.132204,-0.045586,0.001548,0.055186
1722054305.5699,2024-07-26 21:25:05.569,13,false,0.445127,-0.302979,0.582642,0.608765,0.888197,-0.443122,-0.132204,-0.045617,0.001625,0.055136
1722054305.6012,2024-07-26 21:25:05.601,14,false,0.444963,-0.302734,0.582703,0.608948,0.877455,-0.42359,-0.140017,-0.045633,0.001597,0.055226
1722054305.6324,2024-07-26 21:25:05.632,15,false,0.445091,-0.302551,0.582764,0.608887,0.880873,-0.448493,-0.136599,-0.045721,0.001523,0.055111
1722054305.6637,2024-07-26 21:25:05.663,16,false,0.444969,-0.302368,0.582825,0.609009,0.880873,-0.448493,-0.136599,-0.0458,0.001456,0.055008
1722054305.6949,2024-07-26 21:25:05.694,17,false,0.44501,-0.302307,0.582825,0.609009,0.875013,-0.448981,-0.132692,-0.045822,0.001444,0.055049
1722054305.7262,2024-07-26 21:25:05.726,18,false,0.445169,-0.302185,0.582703,0.60907,0.884291,-0.449958,-0.143435,-0.045842,0.001459,0.055086
1722054305.7574,2024-07-26 21:25:05.757,19,false,0.445336,-0.302063,0.582703,0.609009,0.870619,-0.431403,-0.140993,-0.045848,0.001581,0.055132
1722054305.7887,2024-07-26 21:25:05.788,20,false,0.44518,-0.302063,0.582886,0.608948,0.87892,-0.42945,-0.12488,-0.045865,0.001582,0.055075
1722054305.8199,2024-07-26 21:25:05.819,21,false,0.445217,-0.302002,0.582825,0.609009,0.880873,-0.445075,-0.13904,-0.045807,0.00157,0.054976
1722054305.8512,2024-07-26 21:25:05.851,22,false,0.445005,-0.301941,0.582764,0.609253,0.880873,-0.445075,-0.13904,-0.045804,0.001609,0.054959
1722054305.8824,2024-07-26 21:25:05.882,23,false,0.444921,-0.301941,0.582764,0.609314,0.880385,-0.444587,-0.128298,-0.045716,0.001619,0.054956
1722054305.9137,2024-07-26 21:25:05.913,24,false,0.444882,-0.301758,0.582825,0.609375,0.874525,-0.447028,-0.1449,-0.045698,0.001628,0.055052
1722054305.9449,2024-07-26 21:25:05.944,25,false,0.444757,-0.301819,0.582825,0.609436,0.874525,-0.447028,-0.1449,-0.045791,0.00166,0.055064
1722054305.9762,2024-07-26 21:25:05.976,26,false,0.444638,-0.301758,0.582947,0.609436,0.883314,-0.444587,-0.131716,-0.045717,0.001714,0.0551
1722054306.0074,2024-07-26 21:25:06.007,27,false,0.444595,-0.301575,0.582947,0.609558,0.868666,-0.443122,-0.13904,-0.045686,0.001738,0.054985
1722054306.0387,2024-07-26 21:25:06.038,28,false,0.444588,-0.301575,0.582825,0.60968,0.868666,-0.443122,-0.13904,-0.045658,0.001759,0.054882
1722054306.0699,2024-07-26 21:25:06.069,29,false,0.444625,-0.301514,0.582764,0.609741,0.884779,-0.44361,-0.136599,-0.045707,0.001693,0.054949
1722054306.1012,2024-07-26 21:25:06.101,30,false,0.444541,-0.301392,0.582764,0.609863,0.882338,-0.448493,-0.129274,-0.045604,0.001634,0.0548
1722054306.1324,2024-07-26 21:25:06.132,31,false,0.444588,-0.301575,0.582825,0.60968,0.883314,-0.444587,-0.131716,-0.045621,0.001666,0.054801
1722054306.1637,2024-07-26 21:25:06.163,0,false,0.444502,-0.301331,0.582825,0.609863,0.889174,-0.450446,-0.134157,-0.0456,0.001597,0.054741
1722054306.1949,2024-07-26 21:25:06.194,1,false,0.444505,-0.301208,0.582886,0.609863,0.885267,-0.456306,-0.142947,-0.045691,0.001584,0.054736
1722054306.2262,2024-07-26 21:25:06.226,2,false,0.444585,-0.301208,0.582825,0.609863,0.884291,-0.442145,-0.135134,-0.045712,0.001572,0.054975
1722054306.2574,2024-07-26 21:25:06.257,3,false,0.444543,-0.30127,0.582825,0.609863,0.884291,-0.442145,-0.135134,-0.045731,0.001561,0.055191
1722054306.2887,2024-07-26 21:25:06.288,4,false,0.444623,-0.30127,0.582764,0.609863,0.876967,-0.439704,-0.140017,-0.04576,0.001625,0.05525
1722054306.3199,2024-07-26 21:25:06.319,5,false,0.444623,-0.30127,0.582764,0.609863,0.879896,-0.443122,-0.137575,-0.045688,0.001499,0.055243
1722054306.3512,2024-07-26 21:25:06.351,6,false,0.444829,-0.301331,0.582703,0.609741,0.879896,-0.443122,-0.137575,-0.045624,0.001386,0.055236
1722054306.3824,2024-07-26 21:25:06.382,7,false,0.444787,-0.30127,0.582703,0.609802,0.876967,-0.445563,-0.137575,-0.045615,0.001455,0.055243
1722054306.4137,2024-07-26 21:25:06.413,8,false,0.444912,-0.301208,0.582703,0.609741,0.87892,-0.449958,-0.140993,-0.045655,0.001468,0.055346
1722054306.4449,2024-07-26 21:25:06.444,9,false,0.444999,-0.301208,0.582764,0.609619,0.87892,-0.449958,-0.140993,-0.045692,0.00148,0.055439
1722054306.4762,2024-07-26 21:25:06.476,10,false,0.44528,-0.301147,0.582581,0.609619,0.87892,-0.449958,-0.140993,-0.045725,0.00149,0.055522
1722054306.5074,2024-07-26 21:25:06.507,11,false,0.445323,-0.301208,0.582581,0.609558,0.883803,-0.442145,-0.136599,-0.045706,0.001573,0.0555
1722054306.5387,2024-07-26 21:25:06.538,12,false,0.445532,-0.30127,0.582581,0.609375,0.874037,-0.448493,-0.141482,-0.045627,0.001685,0.055419
1722054306.5699,2024-07-26 21:25:06.569,13,false,0.445619,-0.30127,0.582642,0.609253,0.874037,-0.448493,-0.141482,-0.045557,0.001785,0.055346
1722054306.6012,2024-07-26 21:25:06.601,14,false,0.445582,-0.301453,0.582703,0.609131,0.864759,-0.429938,-0.137575,-0.045579,0.00174,0.055414
1722054306.6324,2024-07-26 21:25:06.632,15,false,0.445413,-0.301575,0.582642,0.609253,0.883314,-0.441169,-0.137087,-0.045599,0.001786,0.055354
1722054306.6637,2024-07-26 21:25:06.663,16,false,0.445405,-0.301575,0.58252,0.609375,0.883314,-0.441169,-0.137087,-0.045458,0.001827,0.055336
1722054306.6949,2024-07-26 21:25:06.694,17,false,0.445322,-0.301575,0.58252,0.609436,0.881849,-0.443122,-0.13611,-0.045453,0.00184,0.05532
1722054306.7262,2024-07-26 21:25:06.726,18,false,0.445286,-0.301392,0.582642,0.609436,0.882826,-0.444587,-0.140993,-0.045437,0.001863,0.055318
1722054306.7574,2024-07-26 21:25:06.757,19,false,0.445168,-0.301453,0.582764,0.609375,0.882826,-0.444587,-0.140993,-0.045422,0.001885,0.055316
1722054306.7887,2024-07-26 21:25:06.788,20,false,0.44513,-0.301392,0.582825,0.609375,0.882338,-0.445075,-0.132692,-0.045543,0.001891,0.055144
1722054306.8199,2024-07-26 21:25:06.819,21,false,0.445213,-0.301392,0.582825,0.609314,0.877455,-0.449958,-0.137087,-0.045591,0.001776,0.055147
1722054306.8512,2024-07-26 21:25:06.851,22,false,0.4453,-0.30127,0.582886,0.609253,0.877455,-0.449958,-0.137087,-0.045585,0.001769,0.055125
1722054306.8824,2024-07-26 21:25:06.882,23,false,0.44513,-0.301392,0.582825,0.609375,0.883803,-0.437751,-0.144411,-0.045641,0.001702,0.055082
1722054306.9137,2024-07-26 21:25:06.913,24,false,0.445379,-0.301147,0.582825,0.609314,0.883803,-0.437751,-0.144411,-0.045569,0.001703,0.055067
1722054306.9449,2024-07-26 21:25:06.944,25,false,0.44525,-0.301208,0.582764,0.609436,0.868177,-0.451911,-0.13904,-0.045541,0.001618,0.055114
1722054306.9762,2024-07-26 21:25:06.976,26,false,0.445288,-0.301147,0.582703,0.609497,0.873549,-0.445563,-0.14197,-0.045479,0.001627,0.055047
1722054307.0074,2024-07-26 21:25:07.007,27,false,0.445242,-0.301086,0.582642,0.609619,0.873549,-0.445563,-0.14197,-0.045423,0.001635,0.054987
1722054307.0387,2024-07-26 21:25:07.038,28,false,0.445241,-0.300964,0.582642,0.60968,0.885756,-0.431891,-0.138552,-0.045434,0.001679,0.055043
1722054307.0699,2024-07-26 21:25:07.069,29,false,0.445321,-0.300964,0.582581,0.60968,0.87892,-0.441169,-0.128786,-0.04542,0.00178,0.055093
1722054307.1012,2024-07-26 21:25:07.101,30,false,0.445323,-0.300842,0.582642,0.60968,0.87892,-0.441169,-0.128786,-0.045407,0.00187,0.055138
1722054307.1324,2024-07-26 21:25:07.132,31,false,0.445438,-0.300903,0.582458,0.609741,0.880873,-0.450446,-0.141482,-0.04548,0.001708,0.055068
1722054307.1637,2024-07-26 21:25:07.163,0,false,0.44548,-0.300964,0.582458,0.60968,0.886732,-0.442145,-0.134157,-0.045425,0.001708,0.055116
1722054307.1949,2024-07-26 21:25:07.194,1,false,0.445483,-0.300842,0.58252,0.60968,0.886732,-0.442145,-0.134157,-0.045484,0.00161,0.055183
1722054307.2262,2024-07-26 21:25:07.226,2,false,0.445555,-0.300842,0.582336,0.609802,0.894545,-0.448981,-0.128786,-0.045477,0.001669,0.055292
1722054307.2574,2024-07-26 21:25:07.257,3,false,0.445465,-0.300964,0.582214,0.609924,0.87599,-0.434333,-0.134157,-0.045592,0.001722,0.055305
1722054307.2887,2024-07-26 21:25:07.288,4,false,0.445546,-0.301086,0.582153,0.609863,0.87306,-0.444099,-0.137575,-0.045562,0.001696,0.055329
1722054307.3199,2024-07-26 21:25:07.319,5,false,0.445661,-0.30127,0.58197,0.609863,0.87599,-0.44361,-0.143435,-0.045547,0.001624,0.055106
1722054307.3512,2024-07-26 21:25:07.351,6,false,0.445867,-0.301331,0.581909,0.609741,0.872572,-0.448493,-0.128298,-0.045582,0.001633,0.055089
1722054307.3824,2024-07-26 21:25:07.382,7,false,0.446079,-0.30127,0.58197,0.609558,0.872572,-0.448493,-0.128298,-0.045614,0.00164,0.055073
1722054307.4137,2024-07-26 21:25:07.413,8,false,0.446168,-0.301514,0.582031,0.609314,0.891615,-0.447517,-0.134157,-0.045606,0.001684,0.055059
1722054307.4449,2024-07-26 21:25:07.444,9,false,0.446051,-0.301697,0.582153,0.609192,0.872084,-0.437263,-0.142947,-0.045647,0.001711,0.055071
1722054307.4762,2024-07-26 21:25:07.476,10,false,0.446011,-0.30188,0.582153,0.609131,0.872084,-0.437263,-0.142947,-0.045685,0.001735,0.055081
1722054307.5074,2024-07-26 21:25:07.507,11,false,0.445924,-0.30188,0.582092,0.609253,0.874525,-0.443122,-0.143923,-0.045718,0.001696,0.055091
1722054307.5387,2024-07-26 21:25:07.538,12,false,0.445885,-0.301819,0.582153,0.609253,0.883314,-0.42945,-0.130739,-0.045736,0.001697,0.055136
1722054307.5699,2024-07-26 21:25:07.569,13,false,0.44593,-0.301758,0.582214,0.609192,0.883314,-0.42945,-0.130739,-0.045753,0.001698,0.055177
1722054307.6012,2024-07-26 21:25:07.601,14,false,0.446051,-0.301697,0.582153,0.609192,0.874525,-0.435309,-0.134157,-0.045816,0.001663,0.055238
1722054307.6324,2024-07-26 21:25:07.632,15,false,0.445885,-0.301819,0.582153,0.609253,0.874525,-0.435309,-0.134157,-0.045873,0.001631,0.055293
1722054307.6637,2024-07-26 21:25:07.663,16,false,0.446211,-0.301697,0.582031,0.609192,0.885756,-0.450446,-0.13611,-0.045864,0.001565,0.05522
1722054307.6949,2024-07-26 21:25:07.694,17,false,0.446086,-0.301758,0.582031,0.609253,0.880873,-0.440192,-0.132692,-0.045892,0.001616,0.055313
1722054307.7262,2024-07-26 21:25:07.726,18,false,0.446336,-0.301758,0.582031,0.60907,0.880873,-0.440192,-0.132692,-0.045917,0.001662,0.055397
1722054307.7574,2024-07-26 21:25:07.757,19,false,0.446499,-0.301758,0.58197,0.609009,0.87013,-0.437751,-0.133669,-0.045927,0.001655,0.055375
1722054307.7887,2024-07-26 21:25:07.788,20,false,0.446662,-0.30188,0.581909,0.608887,0.886732,-0.44361,-0.137087,-0.045766,0.001697,0.055392
1722054307.8199,2024-07-26 21:25:07.819,21,false,0.446863,-0.301941,0.581787,0.608826,0.886732,-0.44361,-0.137087,-0.04562,0.001735,0.055407
1722054307.8512,2024-07-26 21:25:07.851,22,false,0.446988,-0.302002,0.581787,0.608704,0.883314,-0.441169,-0.138552,-0.045599,0.00172,0.055445
1722054307.8824,2024-07-26 21:25:07.882,23,false,0.447237,-0.302002,0.581787,0.608521,0.869642,-0.435309,-0.147341,-0.045617,0.001829,0.055296
1722054307.9137,2024-07-26 21:25:07.913,24,false,0.447404,-0.302002,0.581787,0.608398,0.869642,-0.435309,-0.147341,-0.045645,0.001939,0.055174
1722054307.9449,2024-07-26 21:25:07.944,25,false,0.447325,-0.302124,0.581848,0.608337,0.877455,-0.442634,-0.140993,-0.04561,0.001855,0.055065
1722054307.9762,2024-07-26 21:25:07.976,26,false,0.447442,-0.302185,0.581726,0.608337,0.879408,-0.42945,-0.144411,-0.045578,0.001718,0.055174
1722054308.0074,2024-07-26 21:25:08.007,27,false,0.447414,-0.30188,0.58197,0.608276,0.879408,-0.42945,-0.144411,-0.045549,0.001595,0.055272
1722054308.0387,2024-07-26 21:25:08.038,28,false,0.447493,-0.30188,0.581909,0.608276,0.879408,-0.42945,-0.144411,-0.045498,0.001655,0.055347
1722054308.0699,2024-07-26 21:25:08.069,29,false,0.447572,-0.30188,0.581848,0.608276,0.878431,-0.441657,-0.142947,-0.045502,0.001697,0.055367
1722054308.1012,2024-07-26 21:25:08.101,30,false,0.447728,-0.302002,0.581665,0.608276,0.882338,-0.43238,-0.138552,-0.045639,0.001613,0.055421
1722054308.1324,2024-07-26 21:25:08.132,31,false,0.447891,-0.302124,0.581604,0.608154,0.882338,-0.43238,-0.138552,-0.045604,0.001623,0.055409
1722054308.1637,2024-07-26 21:25:08.163,0,false,0.44789,-0.302002,0.581604,0.608215,0.863294,-0.440192,-0.131228,-0.045621,0.001741,0.055447
1722054308.1949,2024-07-26 21:25:08.194,1,false,0.447812,-0.302124,0.581665,0.608154,0.885756,-0.428962,-0.131716,-0.045613,0.001799,0.055347
1722054308.2262,2024-07-26 21:25:08.226,2,false,0.447902,-0.302246,0.581787,0.60791,0.885756,-0.428962,-0.131716,-0.045605,0.001851,0.055256
1722054308.2574,2024-07-26 21:25:08.257,3,false,0.447903,-0.302368,0.581787,0.607849,0.874525,-0.433845,-0.136599,-0.045573,0.001898,0.055224
1722054308.2887,2024-07-26 21:25:08.288,4,false,0.44782,-0.302368,0.581787,0.60791,0.887709,-0.42945,-0.133181,-0.045593,0.001867,0.055329
1722054308.3199,2024-07-26 21:25:08.319,5,false,0.447737,-0.302368,0.581787,0.607971,0.887709,-0.42945,-0.133181,-0.045636,0.001814,0.055375
1722054308.3512,2024-07-26 21:25:08.351,6,false,0.447578,-0.302246,0.581909,0.608032,0.883803,-0.437263,-0.1449,-0.045553,0.001767,0.055355
1722054308.3824,2024-07-26 21:25:08.382,7,false,0.44754,-0.302307,0.58197,0.607971,0.894057,-0.439216,-0.140017,-0.045526,0.001822,0.055264
1722054308.4137,2024-07-26 21:25:08.413,8,false,0.447737,-0.302368,0.581787,0.607971,0.874525,-0.433845,-0.136599,-0.045564,0.001848,0.055292
1722054308.4449,2024-07-26 21:25:08.444,9,false,0.447461,-0.302307,0.582031,0.607971,0.89015,-0.430915,-0.140017,-0.045597,0.00187,0.055317
1722054308.4762,2024-07-26 21:25:08.476,10,false,0.44754,-0.302307,0.58197,0.607971,0.879408,-0.431891,-0.129763,-0.045578,0.001879,0.055388
1722054308.5074,2024-07-26 21:25:08.507,11,false,0.447536,-0.302307,0.581909,0.608032,0.887221,-0.428962,-0.142458,-0.045672,0.001862,0.055404
1722054308.5387,2024-07-26 21:25:08.538,12,false,0.447623,-0.302429,0.58197,0.607849,0.887221,-0.428962,-0.142458,-0.045682,0.001773,0.055344
1722054308.5699,2024-07-26 21:25:08.569,13,false,0.447665,-0.30249,0.58197,0.607788,0.890639,-0.436286,-0.133181,-0.045814,0.00173,0.055413
1722054308.6012,2024-07-26 21:25:08.601,14,false,0.447748,-0.30249,0.58197,0.607727,0.886244,-0.444587,-0.132692,-0.045761,0.001704,0.055365
1722054308.6324,2024-07-26 21:25:08.632,15,false,0.447868,-0.302429,0.581909,0.607727,0.886244,-0.444587,-0.132692,-0.045714,0.00168,0.055322
1722054308.6637,2024-07-26 21:25:08.663,16,false,0.447982,-0.30249,0.581726,0.607788,0.887221,-0.437263,-0.133181,-0.04583,0.001719,0.055319
1722054308.6949,2024-07-26 21:25:08.694,17,false,0.448148,-0.30249,0.581726,0.607666,0.890639,-0.434821,-0.131716,-0.045739,0.001694,0.055317
1722054308.7262,2024-07-26 21:25:08.726,18,false,0.448027,-0.302551,0.581787,0.607666,0.890639,-0.434821,-0.131716,-0.045658,0.001671,0.055316
1722054308.7574,2024-07-26 21:25:08.757,19,false,0.448027,-0.302551,0.581787,0.607666,0.89601,-0.430426,-0.13611,-0.045596,0.001602,0.055265
1722054308.7887,2024-07-26 21:25:08.788,20,false,0.448034,-0.302307,0.581909,0.607666,0.891615,-0.435309,-0.128298,-0.045675,0.001759,0.055342
1722054308.8199,2024-07-26 21:25:08.819,21,false,0.447996,-0.302246,0.58197,0.607666,0.885756,-0.429938,-0.130739,-0.045649,0.001742,0.055386
1722054308.8512,2024-07-26 21:25:08.851,22,false,0.44803,-0.302307,0.581848,0.607727,0.889174,-0.440681,-0.135622,-0.045613,0.001714,0.055438
1722054308.8824,2024-07-26 21:25:08.882,23,false,0.44811,-0.302429,0.581787,0.607666,0.892103,-0.445075,-0.146853,-0.04569,0.001677,0.055412
1722054308.9137,2024-07-26 21:25:08.913,24,false,0.448193,-0.302551,0.581787,0.607544,0.892103,-0.445075,-0.146853,-0.04576,0.001643,0.055389
1722054308.9449,2024-07-26 21:25:08.944,25,false,0.44832,-0.30249,0.581848,0.607422,0.882826,-0.44947,-0.128786,-0.045664,0.001577,0.055429
1722054308.9762,2024-07-26 21:25:08.976,26,false,0.44832,-0.30249,0.581848,0.607422,0.881361,-0.422614,-0.128786,-0.045749,0.001566,0.055501
1722054309.0074,2024-07-26 21:25:09.007,27,false,0.44812,-0.302429,0.58197,0.607483,0.881361,-0.422614,-0.128786,-0.045752,0.001568,0.055346
1722054309.0387,2024-07-26 21:25:09.038,28,false,0.447999,-0.302368,0.582031,0.607544,0.886732,-0.428962,-0.129274,-0.045656,0.001631,0.055391
1722054309.0699,2024-07-26 21:25:09.069,29,false,0.447879,-0.302307,0.582092,0.607605,0.876967,-0.437263,-0.132692,-0.045644,0.001614,0.055381
1722054309.1012,2024-07-26 21:25:09.101,30,false,0.447713,-0.302307,0.582092,0.607727,0.876967,-0.437263,-0.132692,-0.045633,0.001599,0.055373
1722054309.1324,2024-07-26 21:25:09.132,31,false,0.447677,-0.302002,0.582214,0.607788,0.874525,-0.435798,-0.142947,-0.045672,0.001598,0.055378
1722054309.1637,2024-07-26 21:25:09.163,0,false,0.447718,-0.301941,0.582214,0.607788,0.886732,-0.441169,-0.138552,-0.045646,0.001536,0.055358
1722054309.1949,2024-07-26 21:25:09.194,1,false,0.447713,-0.302307,0.582092,0.607727,0.886732,-0.428962,-0.129274,-0.045586,0.001602,0.055364
1722054309.2262,2024-07-26 21:25:09.226,2,false,0.447756,-0.30188,0.582153,0.607849,0.87306,-0.438239,-0.140017,-0.045531,0.001661,0.05537
1722054309.2574,2024-07-26 21:25:09.257,3,false,0.447758,-0.301636,0.582214,0.60791,0.878431,-0.436286,-0.133181,-0.045483,0.001691,0.05535
1722054309.2887,2024-07-26 21:25:09.288,4,false,0.447879,-0.301575,0.582153,0.60791,0.888197,-0.432868,-0.144411,-0.045439,0.001717,0.055357
1722054309.3199,2024-07-26 21:25:09.319,5,false,0.447875,-0.301575,0.582092,0.607971,0.888197,-0.432868,-0.144411,-0.045509,0.001631,0.055205
1722054309.3512,2024-07-26 21:25:09.351,6,false,0.447796,-0.301575,0.582153,0.607971,0.883803,-0.442145,-0.129763,-0.045561,0.001663,0.055202
1722054309.3824,2024-07-26 21:25:09.382,7,false,0.447958,-0.301575,0.582092,0.60791,0.880385,-0.426032,-0.136599,-0.045655,0.001704,0.055175
1722054309.4137,2024-07-26 21:25:09.413,8,false,0.447999,-0.301514,0.582092,0.60791,0.880385,-0.426032,-0.136599,-0.045741,0.001741,0.055151
1722054309.4449,2024-07-26 21:25:09.444,9,false,0.448122,-0.301331,0.582092,0.60791,0.877943,-0.441169,-0.131228,-0.045708,0.001762,0.055056
1722054309.4762,2024-07-26 21:25:09.476,10,false,0.448125,-0.301208,0.582153,0.60791,0.899916,-0.442634,-0.135622,-0.04569,0.001794,0.055141
1722054309.5074,2024-07-26 21:25:09.507,11,false,0.448053,-0.301208,0.582336,0.607788,0.899916,-0.442634,-0.135622,-0.045675,0.001822,0.055218
1722054309.5387,2024-07-26 21:25:09.538,12,false,0.447594,-0.30127,0.582275,0.608154,0.899916,-0.442634,-0.135622,-0.04566,0.001847,0.055287
1722054309.5699,2024-07-26 21:25:09.569,13,false,0.447352,-0.30127,0.582397,0.608215,0.884291,-0.447028,-0.134646,-0.045672,0.001736,0.055386
1722054309.6012,2024-07-26 21:25:09.601,14,false,0.447234,-0.301208,0.58252,0.608215,0.87013,-0.439704,-0.128786,-0.045707,0.001721,0.05545
1722054309.6324,2024-07-26 21:25:09.632,15,false,0.447151,-0.301208,0.58252,0.608276,0.87013,-0.439704,-0.128786,-0.04569,0.001659,0.055399
1722054309.6637,2024-07-26 21:25:09.663,16,false,0.447186,-0.30127,0.582397,0.608337,0.880873,-0.434333,-0.13904,-0.045759,0.001627,0.055315
1722054309.6949,2024-07-26 21:25:09.694,17,false,0.447225,-0.301331,0.582336,0.608337,0.879896,-0.437263,-0.136599,-0.045834,0.001635,0.055314
1722054309.7262,2024-07-26 21:25:09.726,18,false,0.44739,-0.301208,0.582336,0.608276,0.879896,-0.437263,-0.136599,-0.045902,0.001643,0.055312
1722054309.7574,2024-07-26 21:25:09.757,19,false,0.447358,-0.301025,0.58252,0.608215,0.885267,-0.438239,-0.13904,-0.046024,0.001771,0.05525
1722054309.7887,2024-07-26 21:25:09.788,20,false,0.447481,-0.300842,0.58252,0.608215,0.884779,-0.448493,-0.135622,-0.04595,0.001765,0.055401
1722054309.8199,2024-07-26 21:25:09.819,21,false,0.447571,-0.300842,0.582642,0.608032,0.884779,-0.448493,-0.135622,-0.045884,0.001759,0.055537
1722054309.8512,2024-07-26 21:25:09.851,22,false,0.447408,-0.300842,0.582703,0.608093,0.888197,-0.427985,-0.133669,-0.0458,0.001742,0.055501
1722054309.8824,2024-07-26 21:25:09.882,23,false,0.447086,-0.30072,0.582886,0.608215,0.888197,-0.431403,-0.129274,-0.045725,0.001727,0.055554
1722054309.9137,2024-07-26 21:25:09.913,24,false,0.447126,-0.300537,0.582886,0.608276,0.888197,-0.431403,-0.129274,-0.045657,0.001713,0.055602
1722054309.9449,2024-07-26 21:25:09.944,25,false,0.447408,-0.300842,0.582703,0.608093,0.878431,-0.447028,-0.137575,-0.045705,0.001749,0.055425
1722054309.9762,2024-07-26 21:25:09.976,26,false,0.447003,-0.300354,0.582947,0.608398,0.878431,-0.447028,-0.137575,-0.045749,0.001782,0.055266
1722054310.0074,2024-07-26 21:25:10.007,27,false,0.447167,-0.30011,0.582947,0.608398,0.87306,-0.442145,-0.131716,-0.045886,0.001774,0.055147
1722054310.0387,2024-07-26 21:25:10.038,28,false,0.44721,-0.299927,0.583008,0.608398,0.880385,-0.444099,-0.138552,-0.045948,0.001804,0.055187
1722054310.0699,2024-07-26 21:25:10.069,29,false,0.44725,-0.299744,0.583008,0.608459,0.880385,-0.444099,-0.138552,-0.046005,0.001832,0.055222
1722054310.1012,2024-07-26 21:25:10.101,30,false,0.447291,-0.299683,0.583008,0.608459,0.87892,-0.448981,-0.144411,-0.046006,0.001868,0.055242
1722054310.1324,2024-07-26 21:25:10.132,31,false,0.447371,-0.299683,0.582947,0.608459,0.886244,-0.439216,-0.141482,-0.045947,0.001901,0.055175
1722054310.1637,2024-07-26 21:25:10.163,0,false,0.447289,-0.299805,0.582947,0.608459,0.886244,-0.439216,-0.141482,-0.045893,0.001931,0.055114
1722054310.1949,2024-07-26 21:25:10.194,1,false,0.447293,-0.299927,0.583008,0.608337,0.882338,-0.442634,-0.145388,-0.045857,0.002031,0.055132
1722054310.2262,2024-07-26 21:25:10.226,2,false,0.447371,-0.300049,0.582886,0.608337,0.880385,-0.427497,-0.139528,-0.045849,0.002023,0.055137
1722054310.2574,2024-07-26 21:25:10.257,3,false,0.447288,-0.300049,0.582886,0.608398,0.880385,-0.427497,-0.139528,-0.045842,0.002016,0.055141
1722054310.2887,2024-07-26 21:25:10.288,4,false,0.447246,-0.299988,0.582886,0.608459,0.87892,-0.44654,-0.12781,-0.04586,0.002071,0.055205
1722054310.3199,2024-07-26 21:25:10.319,5,false,0.446966,-0.300049,0.583069,0.608459,0.886244,-0.447028,-0.135134,-0.045815,0.001961,0.055227
1722054310.3512,2024-07-26 21:25:10.351,6,false,0.446966,-0.300049,0.583069,0.608459,0.877455,-0.441169,-0.13611,-0.045897,0.001899,0.055185
1722054310.3824,2024-07-26 21:25:10.382,7,false,0.446931,-0.299988,0.583191,0.608398,0.885756,-0.447517,-0.142947,-0.04597,0.001905,0.055123
1722054310.4137,2024-07-26 21:25:10.413,8,false,0.446977,-0.299805,0.583313,0.608337,0.877455,-0.437263,-0.138552,-0.045951,0.001788,0.055153
1722054310.4449,2024-07-26 21:25:10.444,9,false,0.447026,-0.299866,0.583435,0.608154,0.877455,-0.437263,-0.138552,-0.045885,0.00178,0.055131
