Time,Timestamp,Counter,Interpolated,Accelerometer X,Accelerometer Y,Accelerometer Z,Magnetometer X,Magnetometer Y,Magnetometer Z,Quaternion 0,Quaternion 1,Quaternion 2,Quaternion 3
1722050958.7221,2024-07-26 20:29:18.722,27,false,0.447414,-0.30188,0.58197,0.608276,0.879408,-0.42945,-0.144411,-0.045549,0.001595,0.055272
1722050958.7534,2024-07-26 20:29:18.753,28,false,0.447493,-0.30188,0.581909,0.608276,0.879408,-0.42945,-0.144411,-0.045498,0.001655,0.055347
1722050958.7846,2024-07-26 20:29:18.784,29,false,0.447572,-0.30188,0.581848,0.608276,0.878431,-0.441657,-0.142947,-0.045502,0.001697,0.055367
1722050958.8159,2024-07-26 20:29:18.815,30,false,0.447728,-0.302002,0.581665,0.608276,0.882338,-0.43238,-0.138552,-0.045639,0.001613,0.055421
1722050958.8471,2024-07-26 20:29:18.847,31,false,0.447891,-0.302124,0.581604,0.608154,0.882338,-0.43238,-0.138552,-0.045604,0.001623,0.055409
1722050958.8784,2024-07-26 20:29:18.878,0,false,0.44789,-0.302002,0.581604,0.608215,0.863294,-0.440192,-0.131228,-0.045621,0.001741,0.055447
1722050958.9096,2024-07-26 20:29:18.909,1,false,0.447812,-0.302124,0.581665,0.608154,0.885756,-0.428962,-0.131716,-0.045613,0.001799,0.055347
1722050958.9409,2024-07-26 20:29:18.940,2,false,0.447902,-0.302246,0.581787,0.60791,0.885756,-0.428962,-0.131716,-0.045605,0.001851,0.055256
1722050958.9721,2024-07-26 20:29:18.972,3,false,0.447903,-0.302368,0.581787,0.607849,0.874525,-0.433845,-0.136599,-0.045573,0.001898,0.055224
1722050959.0034,2024-07-26 20:29:19.003,4,false,0.44782,-0.302368,0.581787,0.60791,0.887709,-0.42945,-0.133181,-0.045593,0.001867,0.055329
1722050959.0346,2024-07-26 20:29:19.034,5,false,0.447737,-0.302368,0.581787,0.607971,0.887709,-0.42945,-0.133181,-0.045636,0.001814,0.055375
1722050959.0659,2024-07-26 20:29:19.065,6,false,0.447578,-0.302246,0.581909,0.608032,0.883803,-0.437263,-0.1449,-0.045553,0.001767,0.055355
1722050959.0971,2024-07-26 20:29:19.097,7,false,0.44754,-0.302307,0.58197,0.607971,0.894057,-0.439216,-0.140017,-0.045526,0.001822,0.055264
1722050959.1284,2024-07-26 20:29:19.128,8,false,0.447737,-0.302368,0.581787,0.607971,0.874525,-0.433845,-0.136599,-0.045564,0.001848,0.055292
1722050959.1596,2024-07-26 20:29:19.159,9,false,0.447461,-0.302307,0.582031,0.607971,0.89015,-0.430915,-0.140017,-0.045597,0.00187,0.055317
1722050959.1909,2024-07-26 20:29:19.190,10,false,0.44754,-0.302307,0.58197,0.607971,0.879408,-0.431891,-0.129763,-0.045578,0.001879,0.055388
1722050959.2221,2024-07-26 20:29:19.222,11,false,0.447536,-0.302307,0.581909,0.608032,0.887221,-0.428962,-0.142458,-0.045672,0.001862,0.055404
1722050959.2534,2024-07-26 20:29:19.253,12,false,0.447623,-0.302429,0.58197,0.607849,0.887221,-0.428962,-0.142458,-0.045682,0.001773,0.055344
1722050959.2846,2024-07-26 20:29:19.284,13,false,0.447665,-0.30249,0.58197,0.607788,0.890639,-0.436286,-0.133181,-0.045814,0.00173,0.055413
1722050959.3159,2024-07-26 20:29:19.315,14,false,0.447748,-0.30249,0.58197,0.607727,0.886244,-0.444587,-0.132692,-0.045761,0.001704,0.055365
1722050959.3471,2024-07-26 20:29:19.347,15,false,0.447868,-0.302429,0.581909,0.607727,0.886244,-0.444587,-0.132692,-0.045714,0.00168,0.055322
1722050959.3784,2024-07-26 20:29:19.378,16,false,0.447982,-0.30249,0.581726,0.607788,0.887221,-0.437263,-0.133181,-0.04583,0.001719,0.055319
1722050959.4096,2024-07-26 20:29:19.409,17,false,0.448148,-0.30249,0.581726,0.607666,0.890639,-0.434821,-0.131716,-0.045739,0.001694,0.055317
1722050959.4409,2024-07-26 20:29:19.440,18,false,0.448027,-0.302551,0.581787,0.607666,0.890639,-0.434821,-0.131716,-0.045658,0.001671,0.055316
1722050959.4721,2024-07-26 20:29:19.472,19,false,0.448027,-0.302551,0.581787,0.607666,0.89601,-0.430426,-0.13611,-0.045596,0.001602,0.055265
1722050959.5034,2024-07-26 20:29:19.503,20,false,0.448034,-0.302307,0.581909,0.607666,0.891615,-0.435309,-0.128298,-0.045675,0.001759,0.055342
1722050959.5346,2024-07-26 20:29:19.534,21,false,0.447996,-0.302246,0.58197,0.607666,0.885756,-0.429938,-0.130739,-0.045649,0.001742,0.055386
1722050959.5659,2024-07-26 20:29:19.565,22,false,0.44803,-0.302307,0.581848,0.607727,0.889174,-0.440681,-0.135622,-0.045613,0.001714,0.055438
1722050959.5971,2024-07-26 20:29:19.597,23,false,0.44811,-0.302429,0.581787,0.607666,0.892103,-0.445075,-0.146853,-0.04569,0.001677,0.055412
1722050959.6284,2024-07-26 20:29:19.628,24,false,0.448193,-0.302551,0.581787,0.607544,0.892103,-0.445075,-0.146853,-0.04576,0.001643,0.055389
1722050959.6596,2024-07-26 20:29:19.659,25,false,0.44832,-0.30249,0.581848,0.607422,0.882826,-0.44947,-0.128786,-0.045664,0.001577,0.055429
1722050959.6909,2024-07-26 20:29:19.690,26,false,0.44832,-0.30249,0.581848,0.607422,0.881361,-0.422614,-0.128786,-0.045749,0.001566,0.055501
1722050959.7221,2024-07-26 20:29:19.722,27,false,0.44812,-0.302429,0.58197,0.607483,0.881361,-0.422614,-0.128786,-0.045752,0.001568,0.055346
1722050959.7534,2024-07-26 20:29:19.753,28,false,0.447999,-0.302368,0.582031,0.607544,0.886732,-0.428962,-0.129274,-0.045656,0.001631,0.055391
1722050959.7846,2024-07-26 20:29:19.784,29,false,0.447879,-0.302307,0.582092,0.607605,0.876967,-0.437263,-0.132692,-0.045644,0.001614,0.055381
1722050959.8159,2024-07-26 20:29:19.815,30,false,0.447713,-0.302307,0.582092,0.607727,0.876967,-0.437263,-0.132692,-0.045633,0.001599,0.055373
1722050959.8471,2024-07-26 20:29:19.847,31,false,0.447677,-0.302002,0.582214,0.607788,0.874525,-0.435798,-0.142947,-0.045672,0.001598,0.055378
1722050959.8784,2024-07-26 20:29:19.878,0,false,0.447718,-0.301941,0.582214,0.607788,0.886732,-0.441169,-0.138552,-0.045646,0.001536,0.055358
1722050959.9096,2024-07-26 20:29:19.909,1,false,0.447713,-0.302307,0.582092,0.607727,0.886732,-0.428962,-0.129274,-0.045586,0.001602,0.055364
1722050959.9409,2024-07-26 20:29:19.940,2,false,0.447756,-0.30188,0.582153,0.607849,0.87306,-0.438239,-0.140017,-0.045531,0.001661,0.05537
1722050959.9721,2024-07-26 20:29:19.972,3,false,0.447758,-0.301636,0.582214,0.60791,0.878431,-0.436286,-0.133181,-0.045483,0.001691,0.05535
1722050960.0034,2024-07-26 20:29:20.003,4,false,0.447879,-0.301575,0.582153,0.60791,0.888197,-0.432868,-0.144411,-0.045439,0.001717,0.055357
1722050960.0346,2024-07-26 20:29:20.034,5,false,0.447875,-0.301575,0.582092,0.607971,0.888197,-0.432868,-0.144411,-0.045509,0.001631,0.055205
1722050960.0659,2024-07-26 20:29:20.065,6,false,0.447796,-0.301575,0.582153,0.607971,0.883803,-0.442145,-0.129763,-0.045561,0.001663,0.055202
1722050960.0971,2024-07-26 20:29:20.097,7,false,0.447958,-0.301575,0.582092,0.60791,0.880385,-0.426032,-0.136599,-0.045655,0.001704,0.055175
1722050960.1284,2024-07-26 20:29:20.128,8,false,0.447999,-0.301514,0.582092,0.60791,0.880385,-0.426032,-0.136599,-0.045741,0.001741,0.055151
1722050960.1596,2024-07-26 20:29:20.159,9,false,0.448122,-0.301331,0.582092,0.60791,0.877943,-0.441169,-0.131228,-0.045708,0.001762,0.055056
1722050960.1909,2024-07-26 20:29:20.190,10,false,0.448125,-0.301208,0.582153,0.60791,0.899916,-0.442634,-0.135622,-0.04569,0.001794,0.055141
1722050960.2221,2024-07-26 20:29:20.222,11,false,0.448053,-0.301208,0.582336,0.607788,0.899916,-0.442634,-0.135622,-0.045675,0.001822,0.055218
1722050960.2534,2024-07-26 20:29:20.253,12,false,0.447594,-0.30127,0.582275,0.608154,0.899916,-0.442634,-0.135622,-0.04566,0.001847,0.055287
1722050960.2846,2024-07-26 20:29:20.284,13,false,0.447352,-0.30127,0.582397,0.608215,0.884291,-0.447028,-0.134646,-0.045672,0.001736,0.055386
1722050960.3159,2024-07-26 20:29:20.315,14,false,0.447234,-0.301208,0.58252,0.608215,0.87013,-0.439704,-0.128786,-0.045707,0.001721,0.05545
1722050960.3471,2024-07-26 20:29:20.347,15,false,0.447151,-0.301208,0.58252,0.608276,0.87013,-0.439704,-0.128786,-0.04569,0.001659,0.055399
1722050960.3784,2024-07-26 20:29:20.378,16,false,0.447186,-0.30127,0.582397,0.608337,0.880873,-0.434333,-0.13904,-0.045759,0.001627,0.055315
1722050960.4096,2024-07-26 20:29:20.409,17,false,0.447225,-0.301331,0.582336,0.608337,0.879896,-0.437263,-0.136599,-0.045834,0.001635,0.055314
1722050960.4409,2024-07-26 20:29:20.440,18,false,0.44739,-0.301208,0.582336,0.608276,0.879896,-0.437263,-0.136599,-0.045902,0.001643,0.055312
1722050960.4721,2024-07-26 20:29:20.472,19,false,0.447358,-0.301025,0.58252,0.608215,0.885267,-0.438239,-0.13904,-0.046024,0.001771,0.05525
1722050960.5034,2024-07-26 20:29:20.503,20,false,0.447481,-0.300842,0.58252,0.608215,0.884779,-0.448493,-0.135622,-0.04595,0.001765,0.055401
1722050960.5346,2024-07-26 20:29:20.534,21,false,0.447571,-0.300842,0.582642,0.608032,0.884779,-0.448493,-0.135622,-0.045884,0.001759,0.055537
1722050960.5659,2024-07-26 20:29:20.565,22,false,0.447408,-0.300842,0.582703,0.608093,0.888197,-0.427985,-0.133669,-0.0458,0.001742,0.055501
1722050960.5971,2024-07-26 20:29:20.597,23,false,0.447086,-0.30072,0.582886,0.608215,0.888197,-0.431403,-0.129274,-0.045725,0.001727,0.055554
1722050960.6284,2024-07-26 20:29:20.628,24,false,0.447126,-0.300537,0.582886,0.608276,0.888197,-0.431403,-0.129274,-0.045657,0.001713,0.055602
1722050960.6596,2024-07-26 20:29:20.659,25,false,0.447408,-0.300842,0.582703,0.608093,0.878431,-0.447028,-0.137575,-0.045705,0.001749,0.055425
1722050960.6909,2024-07-26 20:29:20.690,26,false,0.447003,-0.300354,0.582947,0.608398,0.878431,-0.447028,-0.137575,-0.045749,0.001782,0.055266
1722050960.7221,2024-07-26 20:29:20.722,27,false,0.447167,-0.30011,0.582947,0.608398,0.87306,-0.442145,-0.131716,-0.045886,0.001774,0.055147
1722050960.7534,2024-07-26 20:29:20.753,28,false,0.44721,-0.299927,0.583008,0.608398,0.880385,-0.444099,-0.138552,-0.045948,0.001804,0.055187
1722050960.7846,2024-07-26 20:29:20.784,29,false,0.44725,-0.299744,0.583008,0.608459,0.880385,-0.444099,-0.138552,-0.046005,0.001832,0.055222
1722050960.8159,2024-07-26 20:29:20.815,30,false,0.447291,-0.299683,0.583008,0.608459,0.87892,-0.448981,-0.144411,-0.046006,0.001868,0.055242
1722050960.8471,2024-07-26 20:29:20.847,31,false,0.447371,-0.299683,0.582947,0.608459,0.886244,-0.439216,-0.141482,-0.045947,0.001901,0.055175
1722050960.8784,2024-07-26 20:29:20.878,0,false,0.447289,-0.299805,0.582947,0.608459,0.886244,-0.439216,-0.141482,-0.045893,0.001931,0.055114
1722050960.9096,2024-07-26 20:29:20.909,1,false,0.447293,-0.299927,0.583008,0.608337,0.882338,-0.442634,-0.145388,-0.045857,0.002031,0.055132
1722050960.9409,2024-07-26 20:29:20.940,2,false,0.447371,-0.300049,0.582886,0.608337,0.880385,-0.427497,-0.139528,-0.045849,0.002023,0.055137
1722050960.9721,2024-07-26 20:29:20.972,3,false,0.447288,-0.300049,0.582886,0.608398,0.880385,-0.427497,-0.139528,-0.045842,0.002016,0.055141
1722050961.0034,2024-07-26 20:29:21.003,4,false,0.447246,-0.299988,0.582886,0.608459,0.87892,-0.44654,-0.12781,-0.04586,0.002071,0.055205
1722050961.0346,2024-07-26 20:29:21.034,5,false,0.446966,-0.300049,0.583069,0.608459,0.886244,-0.447028,-0.135134,-0.045815,0.001961,0.055227
1722050961.0659,2024-07-26 20:29:21.065,6,false,0.446966,-0.300049,0.583069,0.608459,0.877455,-0.441169,-0.13611,-0.045897,0.001899,0.055185
1722050961.0971,2024-07-26 20:29:21.097,7,false,0.446931,-0.299988,0.583191,0.608398,0.885756,-0.447517,-0.142947,-0.04597,0.001905,0.055123
1722050961.1284,2024-07-26 20:29:21.128,8,false,0.446977,-0.299805,0.583313,0.608337,0.877455,-0.437263,-0.138552,-0.045951,0.001788,0.055153
1722050961.1596,2024-07-26 20:29:21.159,9,false,0.447026,-0.299866,0.583435,0.608154,0.877455,-0.437263,-0.138552,-0.045885,0.00178,0.055131
1722050961.1909,2024-07-26 20:29:21.190,10,false,0.446985,-0.299927,0.583435,0.608154,0.868666,-0.441169,-0.129763,-0.045935,0.00176,0.055099
1722050961.2221,2024-07-26 20:29:21.222,11,false,0.447027,-0.299988,0.583435,0.608093,0.873549,-0.445075,-0.134646,-0.045882,0.00178,0.055046
1722050961.2534,2024-07-26 20:29:21.253,12,false,0.447149,-0.300049,0.583374,0.608032,0.873549,-0.445075,-0.134646,-0.045835,0.001797,0.054998
1722050961.2846,2024-07-26 20:29:21.284,13,false,0.447311,-0.299927,0.583313,0.608032,0.876967,-0.444587,-0.133669,-0.045866,0.001703,0.055089
1722050961.3159,2024-07-26 20:29:21.315,14,false,0.447518,-0.299988,0.583313,0.607849,0.891615,-0.440192,-0.138552,-0.045857,0.001813,0.055098
1722050961.3471,2024-07-26 20:29:21.347,15,false,0.447531,-0.299866,0.583557,0.607666,0.891615,-0.440192,-0.138552,-0.045849,0.001913,0.055106
1722050961.3784,2024-07-26 20:29:21.378,16,false,0.447534,-0.299866,0.583618,0.607605,0.87892,-0.431403,-0.128786,-0.045952,0.001892,0.055149
1722050961.4096,2024-07-26 20:29:21.409,17,false,0.447533,-0.299744,0.583618,0.607666,0.885267,-0.43238,-0.130739,-0.045995,0.001801,0.055213
1722050961.4409,2024-07-26 20:29:21.440,18,false,0.447531,-0.299866,0.583557,0.607666,0.876967,-0.444587,-0.133669,-0.045998,0.001816,0.055173
1722050961.4721,2024-07-26 20:29:21.472,19,false,0.447406,-0.299805,0.583557,0.607788,0.877455,-0.423102,-0.128786,-0.046,0.00183,0.055137
1722050961.5034,2024-07-26 20:29:21.503,20,false,0.447245,-0.299683,0.583679,0.607849,0.89015,-0.445075,-0.135134,-0.0461,0.001805,0.055165
1722050961.5346,2024-07-26 20:29:21.534,21,false,0.447207,-0.299622,0.58374,0.607849,0.881361,-0.436774,-0.132692,-0.046068,0.00182,0.055191
1722050961.5659,2024-07-26 20:29:21.565,22,false,0.447254,-0.299561,0.583862,0.607727,0.881361,-0.436774,-0.132692,-0.046039,0.001833,0.055214
1722050961.5971,2024-07-26 20:29:21.597,23,false,0.447212,-0.2995,0.583862,0.607788,0.869642,-0.451911,-0.143435,-0.045903,0.001821,0.055283
1722050961.6284,2024-07-26 20:29:21.628,24,false,0.447173,-0.299438,0.583923,0.607788,0.876478,-0.440681,-0.136599,-0.045841,0.001785,0.055199
1722050961.6596,2024-07-26 20:29:21.659,25,false,0.447129,-0.2995,0.583862,0.607849,0.876478,-0.440681,-0.136599,-0.045786,0.001753,0.055124
1722050961.6909,2024-07-26 20:29:21.690,26,false,0.447173,-0.299438,0.583923,0.607788,0.884779,-0.427985,-0.137087,-0.045797,0.001688,0.055105
1722050961.7221,2024-07-26 20:29:21.722,27,false,0.447133,-0.299622,0.583923,0.607727,0.867689,-0.44361,-0.128786,-0.045795,0.001678,0.055014
1722050961.7534,2024-07-26 20:29:21.753,28,false,0.447133,-0.299622,0.583923,0.607727,0.867689,-0.44361,-0.128786,-0.04583,0.001803,0.055006
1722050961.7846,2024-07-26 20:29:21.784,29,false,0.44705,-0.299622,0.583923,0.607788,0.871595,-0.44654,-0.144411,-0.045752,0.001842,0.055084
1722050961.8159,2024-07-26 20:29:21.815,30,false,0.446928,-0.299805,0.583923,0.607788,0.889174,-0.439704,-0.132204,-0.045669,0.001866,0.055069
1722050961.8471,2024-07-26 20:29:21.847,31,false,0.447055,-0.299744,0.583984,0.607666,0.876478,-0.433845,-0.142947,-0.045643,0.001777,0.055141
1722050961.8784,2024-07-26 20:29:21.878,0,false,0.446933,-0.299683,0.584045,0.607727,0.880385,-0.440681,-0.13611,-0.045669,0.001746,0.05512
1722050961.9096,2024-07-26 20:29:21.909,1,false,0.446811,-0.299622,0.584106,0.607788,0.877943,-0.445075,-0.133669,-0.045679,0.001766,0.055089
1722050961.9409,2024-07-26 20:29:21.940,2,false,0.446648,-0.299622,0.584167,0.607849,0.877943,-0.445075,-0.133669,-0.045665,0.001797,0.055232
1722050961.9721,2024-07-26 20:29:21.972,3,false,0.446567,-0.2995,0.584229,0.60791,0.882338,-0.437263,-0.140017,-0.045652,0.001703,0.055178
1722050962.0034,2024-07-26 20:29:22.003,4,false,0.446726,-0.299377,0.584106,0.607971,0.886244,-0.438727,-0.130251,-0.045664,0.001789,0.055202
1722050962.0346,2024-07-26 20:29:22.034,5,false,0.446846,-0.299316,0.584045,0.607971,0.886244,-0.438727,-0.130251,-0.045675,0.001866,0.055224
1722050962.0659,2024-07-26 20:29:22.065,6,false,0.446929,-0.299316,0.584045,0.60791,0.877943,-0.444587,-0.13904,-0.045795,0.001851,0.055231
1722050962.0971,2024-07-26 20:29:22.097,7,false,0.446892,-0.299377,0.584106,0.607849,0.882338,-0.444099,-0.13904,-0.045757,0.0018,0.055226
1722050962.1284,2024-07-26 20:29:22.128,8,false,0.446932,-0.299561,0.584045,0.607788,0.882338,-0.444099,-0.13904,-0.045722,0.001754,0.055221
1722050962.1596,2024-07-26 20:29:22.159,9,false,0.446975,-0.299744,0.584045,0.607666,0.879896,-0.440192,-0.130251,-0.045642,0.001628,0.055314
1722050962.1909,2024-07-26 20:29:22.190,10,false,0.446892,-0.299377,0.584106,0.607849,0.879896,-0.440192,-0.130251,-0.045656,0.001538,0.0553
1722050962.2221,2024-07-26 20:29:22.222,11,false,0.446854,-0.299805,0.584106,0.607666,0.881849,-0.434821,-0.127321,-0.04568,0.001592,0.055325
1722050962.2534,2024-07-26 20:29:22.253,12,false,0.44681,-0.299866,0.584045,0.607727,0.880873,-0.442145,-0.13611,-0.045617,0.001652,0.055334
1722050962.2846,2024-07-26 20:29:22.284,13,false,0.446765,-0.299805,0.583984,0.607849,0.880873,-0.442145,-0.13611,-0.045559,0.001707,0.055343
1722050962.3159,2024-07-26 20:29:22.315,14,false,0.446727,-0.299866,0.584045,0.607788,0.889174,-0.44361,-0.127321,-0.045484,0.00167,0.055229
1722050962.3471,2024-07-26 20:29:22.347,15,false,0.446771,-0.299805,0.584106,0.607727,0.871595,-0.44654,-0.129763,-0.045525,0.00165,0.055199
1722050962.3784,2024-07-26 20:29:22.378,16,false,0.446807,-0.299866,0.583984,0.607788,0.871595,-0.44654,-0.129763,-0.045562,0.001631,0.055172
1722050962.4096,2024-07-26 20:29:22.409,17,false,0.446804,-0.299866,0.583923,0.607849,0.870619,-0.433356,-0.120485,-0.045657,0.001578,0.055124
1722050962.4409,2024-07-26 20:29:22.440,18,false,0.446842,-0.299927,0.583862,0.607849,0.87306,-0.448981,-0.141482,-0.045694,0.00164,0.055032
1722050962.4721,2024-07-26 20:29:22.472,19,false,0.446846,-0.299927,0.583923,0.607788,0.87306,-0.448981,-0.141482,-0.045739,0.001708,0.054997
1722050962.5034,2024-07-26 20:29:22.503,20,false,0.446929,-0.299927,0.583923,0.607727,0.878431,-0.441657,-0.147829,-0.045816,0.001708,0.055088
1722050962.5346,2024-07-26 20:29:22.534,21,false,0.446929,-0.299927,0.583923,0.607727,0.871107,-0.448981,-0.139528,-0.045726,0.001769,0.055048
1722050962.5659,2024-07-26 20:29:22.565,22,false,0.447089,-0.300049,0.583801,0.607666,0.871107,-0.448981,-0.139528,-0.045646,0.001824,0.055012
1722050962.5971,2024-07-26 20:29:22.597,23,false,0.447297,-0.30011,0.583801,0.607483,0.871107,-0.448981,-0.139528,-0.045574,0.001874,0.05498
1722050962.6284,2024-07-26 20:29:22.628,24,false,0.447256,-0.300171,0.583801,0.607483,0.877455,-0.447517,-0.140993,-0.045679,0.001821,0.054902
1722050962.6596,2024-07-26 20:29:22.659,25,false,0.447292,-0.300232,0.583679,0.607544,0.887709,-0.437751,-0.135622,-0.045689,0.001773,0.054868
1722050962.6909,2024-07-26 20:29:22.690,26,false,0.447292,-0.300232,0.583679,0.607544,0.887709,-0.437751,-0.135622,-0.04571,0.001766,0.05485
1722050962.7221,2024-07-26 20:29:22.722,27,false,0.447288,-0.300232,0.583618,0.607605,0.87599,-0.431891,-0.135622,-0.045717,0.001687,0.054846
1722050962.7534,2024-07-26 20:29:22.753,28,false,0.447209,-0.300232,0.583679,0.607605,0.880385,-0.438727,-0.138552,-0.045723,0.001714,0.054904
1722050962.7846,2024-07-26 20:29:22.784,29,false,0.447171,-0.300293,0.58374,0.607544,0.880385,-0.438727,-0.138552,-0.045728,0.001738,0.054956
1722050962.8159,2024-07-26 20:29:22.815,30,false,0.447245,-0.300415,0.583557,0.607605,0.873549,-0.437751,-0.140993,-0.045697,0.001845,0.055063
1722050962.8471,2024-07-26 20:29:22.847,31,false,0.447284,-0.300476,0.583496,0.607605,0.874525,-0.438727,-0.143435,-0.045705,0.001795,0.055135
1722050962.8784,2024-07-26 20:29:22.878,0,false,0.447281,-0.300598,0.583435,0.607605,0.874525,-0.438727,-0.143435,-0.045712,0.00175,0.055201
1722050962.9096,2024-07-26 20:29:22.909,1,false,0.447399,-0.300659,0.583313,0.607605,0.882826,-0.434821,-0.137087,-0.045609,0.001782,0.055149
1722050962.9409,2024-07-26 20:29:22.940,2,false,0.4474,-0.300781,0.583313,0.607544,0.882338,-0.441169,-0.138064,-0.04565,0.001799,0.055177
1722050962.9721,2024-07-26 20:29:22.972,3,false,0.447281,-0.300598,0.583435,0.607605,0.873549,-0.437751,-0.140993,-0.045663,0.0019,0.055201
1722050963.0034,2024-07-26 20:29:23.003,4,false,0.447446,-0.300964,0.583374,0.607361,0.877455,-0.432868,-0.139528,-0.045601,0.001783,0.055162
1722050963.0346,2024-07-26 20:29:23.034,5,false,0.447481,-0.300903,0.583252,0.607483,0.876967,-0.442634,-0.138064,-0.045643,0.0018,0.055188
1722050963.0659,2024-07-26 20:29:23.065,6,false,0.447401,-0.300903,0.583313,0.607483,0.881849,-0.434821,-0.128298,-0.045632,0.00173,0.055077
1722050963.0971,2024-07-26 20:29:23.097,7,false,0.447398,-0.300903,0.583252,0.607544,0.881849,-0.434821,-0.128298,-0.045622,0.001667,0.054977
1722050963.1284,2024-07-26 20:29:23.128,8,false,0.44728,-0.300842,0.583374,0.607544,0.881849,-0.433356,-0.129763,-0.045637,0.001659,0.05496
1722050963.1596,2024-07-26 20:29:23.159,9,false,0.447366,-0.300842,0.583435,0.607422,0.883314,-0.442145,-0.13904,-0.045627,0.001579,0.054957
1722050963.1909,2024-07-26 20:29:23.190,10,false,0.447489,-0.300659,0.583435,0.607422,0.883314,-0.442145,-0.13904,-0.045618,0.001506,0.054955
1722050963.2221,2024-07-26 20:29:23.222,11,false,0.447693,-0.30072,0.583374,0.6073,0.885267,-0.444587,-0.132204,-0.045634,0.001514,0.05488
1722050963.2534,2024-07-26 20:29:23.253,12,false,0.447773,-0.30072,0.583313,0.6073,0.880385,-0.438727,-0.131228,-0.04566,0.00157,0.054946
1722050963.2846,2024-07-26 20:29:23.284,13,false,0.447808,-0.300781,0.583191,0.607361,0.880385,-0.438727,-0.131228,-0.045586,0.001706,0.054981
1722050963.3159,2024-07-26 20:29:23.315,14,false,0.447932,-0.300842,0.583191,0.607239,0.874037,-0.427008,-0.128298,-0.045532,0.001755,0.054903
1722050963.3471,2024-07-26 20:29:23.347,15,false,0.448013,-0.301086,0.58313,0.607117,0.886244,-0.445075,-0.123903,-0.045459,0.001739,0.054833
1722050963.3784,2024-07-26 20:29:23.378,16,false,0.448214,-0.301147,0.583008,0.607056,0.874037,-0.439704,-0.128786,-0.045405,0.001675,0.054879
1722050963.4096,2024-07-26 20:29:23.409,17,false,0.448172,-0.301086,0.583008,0.607117,0.870619,-0.433845,-0.130739,-0.045357,0.001715,0.054885
1722050963.4409,2024-07-26 20:29:23.440,18,false,0.448252,-0.301208,0.582947,0.607056,0.882826,-0.438239,-0.137087,-0.045436,0.001751,0.05478
1722050963.4721,2024-07-26 20:29:23.472,19,false,0.448176,-0.301208,0.583069,0.606995,0.882826,-0.438239,-0.137087,-0.045543,0.001746,0.054795
1722050963.5034,2024-07-26 20:29:23.503,20,false,0.448252,-0.301208,0.582947,0.607056,0.881849,-0.438239,-0.126833,-0.045493,0.001853,0.054894
1722050963.5346,2024-07-26 20:29:23.534,21,false,0.448211,-0.30127,0.582947,0.607056,0.882338,-0.424567,-0.128298,-0.045583,0.001863,0.054947
1722050963.5659,2024-07-26 20:29:23.565,22,false,0.448252,-0.301208,0.582947,0.607056,0.882338,-0.424567,-0.128298,-0.045663,0.001872,0.054994
1722050963.5971,2024-07-26 20:29:23.597,23,false,0.448376,-0.301147,0.582947,0.606995,0.885756,-0.42945,-0.139528,-0.045748,0.001831,0.054964
1722050963.6284,2024-07-26 20:29:23.628,24,false,0.448376,-0.30127,0.582947,0.606934,0.885756,-0.444099,-0.129274,-0.045726,0.001758,0.054875
1722050963.6596,2024-07-26 20:29:23.659,25,false,0.448335,-0.301331,0.582947,0.606934,0.885756,-0.444099,-0.129274,-0.045707,0.001692,0.054795
1722050963.6909,2024-07-26 20:29:23.690,26,false,0.448373,-0.30127,0.582886,0.606995,0.880385,-0.446052,-0.14197,-0.04569,0.00173,0.05487
1722050963.7221,2024-07-26 20:29:23.722,27,false,0.448452,-0.30127,0.582825,0.606995,0.87599,-0.435309,-0.131228,-0.045711,0.001606,0.054974
1722050963.7534,2024-07-26 20:29:23.753,28,false,0.448335,-0.301331,0.582947,0.606934,0.885756,-0.42945,-0.139528,-0.045742,0.00158,0.054994
1722050963.7846,2024-07-26 20:29:23.784,29,false,0.448491,-0.301331,0.582764,0.606995,0.876478,-0.439216,-0.138552,-0.04577,0.001556,0.055012
1722050963.8159,2024-07-26 20:29:23.815,30,false,0.448612,-0.301392,0.582703,0.606934,0.877943,-0.42945,-0.130251,-0.04577,0.001596,0.055053
1722050963.8471,2024-07-26 20:29:23.847,31,false,0.44845,-0.301392,0.582764,0.606995,0.877943,-0.436286,-0.136599,-0.045637,0.001656,0.055005
1722050963.8784,2024-07-26 20:29:23.878,0,false,0.448329,-0.301453,0.582825,0.606995,0.877943,-0.436286,-0.136599,-0.045516,0.00171,0.054961
1722050963.9096,2024-07-26 20:29:23.909,1,false,0.448206,-0.301514,0.582825,0.607056,0.879408,-0.42652,-0.123903,-0.045469,0.001734,0.054946
1722050963.9409,2024-07-26 20:29:23.940,2,false,0.447961,-0.301514,0.582886,0.607178,0.884291,-0.435798,-0.135134,-0.045524,0.001756,0.054932
1722050963.9721,2024-07-26 20:29:23.972,3,false,0.447926,-0.301575,0.583008,0.607056,0.884291,-0.435798,-0.135134,-0.045574,0.001776,0.05492
1722050964.0034,2024-07-26 20:29:24.003,4,false,0.44793,-0.301575,0.583069,0.606995,0.885267,-0.448493,-0.142458,-0.04568,0.001757,0.054946
1722050964.0346,2024-07-26 20:29:24.034,5,false,0.447889,-0.301636,0.583069,0.606995,0.879408,-0.431891,-0.119509,-0.045714,0.00174,0.054969
1722050964.0659,2024-07-26 20:29:24.065,6,false,0.447848,-0.301819,0.583069,0.606934,0.879408,-0.431891,-0.119509,-0.045671,0.001835,0.055124
1722050964.0971,2024-07-26 20:29:24.097,7,false,0.447684,-0.302307,0.583069,0.606812,0.879408,-0.431891,-0.119509,-0.045633,0.00192,0.055263
1722050964.1284,2024-07-26 20:29:24.128,8,false,0.447639,-0.302368,0.583008,0.606873,0.874037,-0.430426,-0.138064,-0.045562,0.001874,0.055206
1722050964.1596,2024-07-26 20:29:24.159,9,false,0.447675,-0.302551,0.582886,0.606873,0.875013,-0.426032,-0.135622,-0.045596,0.001833,0.055179
1722050964.1909,2024-07-26 20:29:24.190,10,false,0.447595,-0.302673,0.582947,0.606812,0.875013,-0.426032,-0.135622,-0.045626,0.001796,0.055154
1722050964.2221,2024-07-26 20:29:24.222,11,false,0.44764,-0.302734,0.583008,0.606689,0.880873,-0.427985,-0.139528,-0.045653,0.001788,0.055132
1722050964.2534,2024-07-26 20:29:24.253,12,false,0.447643,-0.302734,0.583069,0.606628,0.882338,-0.434821,-0.137087,-0.04569,0.001743,0.055075
1722050964.2846,2024-07-26 20:29:24.284,13,false,0.447764,-0.302795,0.583008,0.606567,0.882338,-0.434821,-0.137087,-0.045699,0.001764,0.055024
1722050964.3159,2024-07-26 20:29:24.315,14,false,0.447885,-0.302856,0.582947,0.606506,0.886732,-0.430426,-0.129763,-0.045731,0.001783,0.054979
1722050964.3471,2024-07-26 20:29:24.347,15,false,0.447761,-0.302917,0.582947,0.606567,0.872084,-0.442634,-0.13611,-0.045858,0.001678,0.054998
1722050964.3784,2024-07-26 20:29:24.378,16,false,0.44772,-0.302979,0.582947,0.606567,0.872084,-0.442634,-0.13611,-0.045972,0.001583,0.055016
1722050964.4096,2024-07-26 20:29:24.409,17,false,0.447803,-0.302979,0.582947,0.606506,0.881849,-0.441657,-0.132204,-0.045842,0.001633,0.055105
1722050964.4409,2024-07-26 20:29:24.440,18,false,0.448041,-0.302979,0.582764,0.606506,0.881361,-0.437751,-0.131228,-0.04586,0.001726,0.055076
1722050964.4721,2024-07-26 20:29:24.472,19,false,0.448076,-0.303162,0.582642,0.606506,0.881361,-0.437751,-0.131228,-0.045876,0.00181,0.055049
1722050964.5034,2024-07-26 20:29:24.503,20,false,0.447803,-0.302979,0.582947,0.606506,0.895033,-0.43238,-0.13611,-0.045793,0.001824,0.055001
1722050964.5346,2024-07-26 20:29:24.534,21,false,0.447993,-0.303162,0.582642,0.606567,0.895033,-0.43238,-0.13611,-0.045718,0.001837,0.054958
1722050964.5659,2024-07-26 20:29:24.565,22,false,0.447948,-0.303101,0.582581,0.606689,0.889662,-0.442634,-0.126833,-0.045639,0.001861,0.054992
1722050964.5971,2024-07-26 20:29:24.597,23,false,0.448069,-0.303162,0.58252,0.606628,0.885756,-0.419684,-0.134646,-0.045824,0.001907,0.055083
1722050964.6284,2024-07-26 20:29:24.628,24,false,0.447993,-0.303162,0.582642,0.606567,0.885756,-0.419684,-0.134646,-0.045856,0.001765,0.055166
1722050964.6596,2024-07-26 20:29:24.659,25,false,0.447869,-0.303101,0.582642,0.606689,0.891615,-0.430915,-0.132204,-0.045762,0.00182,0.055143
1722050964.6909,2024-07-26 20:29:24.690,26,false,0.447545,-0.302856,0.582764,0.606934,0.880385,-0.43238,-0.122438,-0.045727,0.001833,0.055109
1722050964.7221,2024-07-26 20:29:24.722,27,false,0.44734,-0.302551,0.582825,0.607178,0.880385,-0.43238,-0.122438,-0.045695,0.001845,0.05508
1722050964.7534,2024-07-26 20:29:24.753,28,false,0.447267,-0.302429,0.583008,0.607117,0.874525,-0.420661,-0.128786,-0.04574,0.001746,0.05504
1722050964.7846,2024-07-26 20:29:24.784,29,false,0.447308,-0.302368,0.583008,0.607117,0.885267,-0.436774,-0.134646,-0.045756,0.001682,0.055066
1722050964.8159,2024-07-26 20:29:24.815,30,false,0.447349,-0.302185,0.583008,0.607178,0.885267,-0.436774,-0.134646,-0.045819,0.001587,0.055041
1722050964.8471,2024-07-26 20:29:24.847,31,false,0.447349,-0.302185,0.583008,0.607178,0.87306,-0.433845,-0.135134,-0.045852,0.001513,0.054981
1722050964.8784,2024-07-26 20:29:24.878,0,false,0.447343,-0.302307,0.582886,0.607239,0.879408,-0.450446,-0.143923,-0.045844,0.001521,0.054903
1722050964.9096,2024-07-26 20:29:24.909,1,false,0.447267,-0.302307,0.583008,0.607178,0.880385,-0.448493,-0.134157,-0.045874,0.00154,0.054906
1722050964.9409,2024-07-26 20:29:24.940,2,false,0.447225,-0.302246,0.583008,0.607239,0.888685,-0.433356,-0.12195,-0.045901,0.001618,0.054823
1722050964.9721,2024-07-26 20:29:24.972,3,false,0.447225,-0.302246,0.583008,0.607239,0.884291,-0.431403,-0.123415,-0.045962,0.001688,0.05481
1722050965.0034,2024-07-26 20:29:25.003,4,false,0.447387,-0.302002,0.582947,0.6073,0.884291,-0.431403,-0.123415,-0.046017,0.001751,0.054797
1722050965.0346,2024-07-26 20:29:25.034,5,false,0.447228,-0.302002,0.583069,0.6073,0.884291,-0.435798,-0.135134,-0.045907,0.001722,0.054811
1722050965.0659,2024-07-26 20:29:25.065,6,false,0.446986,-0.302124,0.583191,0.6073,0.889662,-0.424079,-0.126833,-0.045919,0.001587,0.054933
1722050965.0971,2024-07-26 20:29:25.097,7,false,0.447024,-0.302185,0.58313,0.6073,0.889662,-0.424079,-0.126833,-0.045929,0.001465,0.055043
1722050965.1284,2024-07-26 20:29:25.128,8,false,0.44682,-0.302124,0.583191,0.607422,0.886732,-0.445563,-0.126345,-0.046085,0.001465,0.055154
1722050965.1596,2024-07-26 20:29:25.159,9,false,0.446746,-0.30188,0.583374,0.607422,0.880873,-0.427497,-0.129763,-0.046127,0.001526,0.055229
1722050965.1909,2024-07-26 20:29:25.190,10,false,0.446872,-0.301575,0.583435,0.607422,0.880873,-0.427497,-0.129763,-0.046165,0.001581,0.055297
1722050965.2221,2024-07-26 20:29:25.222,11,false,0.446709,-0.301453,0.583496,0.607544,0.887709,-0.44361,-0.138064,-0.046078,0.001569,0.055322
1722050965.2534,2024-07-26 20:29:25.253,12,false,0.446709,-0.301453,0.583496,0.607544,0.87892,-0.439704,-0.133181,-0.045974,0.001485,0.055307
1722050965.2846,2024-07-26 20:29:25.284,13,false,0.446872,-0.301575,0.583435,0.607422,0.886732,-0.445563,-0.126345,-0.045881,0.001435,0.055294
1722050965.3159,2024-07-26 20:29:25.315,14,false,0.446665,-0.301514,0.583435,0.607605,0.888197,-0.444587,-0.136599,-0.045798,0.001389,0.055283
1722050965.3471,2024-07-26 20:29:25.347,15,false,0.44662,-0.301575,0.583374,0.607666,0.895521,-0.440192,-0.14197,-0.04593,0.001421,0.055309
1722050965.3784,2024-07-26 20:29:25.378,16,false,0.446779,-0.301575,0.583252,0.607666,0.874037,-0.425544,-0.138064,-0.045976,0.001376,0.055173
1722050965.4096,2024-07-26 20:29:25.409,17,false,0.446734,-0.301514,0.583191,0.607788,0.874037,-0.425544,-0.138064,-0.045907,0.001446,0.055271
1722050965.4409,2024-07-26 20:29:25.440,18,false,0.4469,-0.301392,0.583191,0.607727,0.881361,-0.445563,-0.137575,-0.045857,0.00168,0.055286
1722050965.4721,2024-07-26 20:29:25.472,19,false,0.446695,-0.301331,0.583252,0.607849,0.891615,-0.438727,-0.133669,-0.045825,0.001781,0.055226
1722050965.5034,2024-07-26 20:29:25.503,20,false,0.446777,-0.301086,0.583252,0.60791,0.891615,-0.438727,-0.133669,-0.045893,0.001773,0.055234
1722050965.5346,2024-07-26 20:29:25.534,21,false,0.446776,-0.300964,0.583252,0.607971,0.884779,-0.442145,-0.134157,-0.045918,0.001804,0.055265
1722050965.5659,2024-07-26 20:29:25.565,22,false,0.446612,-0.300842,0.583313,0.608093,0.889662,-0.436286,-0.13904,-0.045904,0.001819,0.055256
1722050965.5971,2024-07-26 20:29:25.597,23,false,0.446698,-0.30072,0.583374,0.608032,0.889662,-0.436286,-0.13904,-0.045892,0.001832,0.055248
1722050965.6284,2024-07-26 20:29:25.628,24,false,0.446648,-0.300537,0.583252,0.608276,0.889662,-0.436286,-0.13904,-0.045734,0.001795,0.055216
1722050965.6596,2024-07-26 20:29:25.659,25,false,0.446769,-0.300476,0.583191,0.608276,0.869642,-0.433845,-0.133669,-0.045714,0.001762,0.055225
1722050965.6909,2024-07-26 20:29:25.690,26,false,0.446726,-0.300293,0.583191,0.608398,0.876967,-0.446052,-0.132692,-0.045732,0.001757,0.055171
1722050965.7221,2024-07-26 20:29:25.722,27,false,0.44685,-0.300232,0.583191,0.608337,0.876967,-0.446052,-0.132692,-0.045749,0.001728,0.055123
1722050965.7534,2024-07-26 20:29:25.753,28,false,0.446972,-0.300293,0.58313,0.608276,0.865248,-0.438239,-0.134646,-0.045715,0.00175,0.055214
1722050965.7846,2024-07-26 20:29:25.784,29,false,0.447093,-0.300354,0.583069,0.608215,0.868177,-0.444099,-0.138064,-0.045721,0.001734,0.055149
1722050965.8159,2024-07-26 20:29:25.815,30,false,0.447218,-0.300415,0.583069,0.608093,0.868177,-0.444099,-0.138064,-0.045727,0.001719,0.055091
1722050965.8471,2024-07-26 20:29:25.847,31,false,0.447218,-0.300415,0.583069,0.608093,0.872572,-0.438727,-0.127321,-0.045744,0.001718,0.055172
1722050965.8784,2024-07-26 20:29:25.878,0,false,0.447301,-0.300415,0.583069,0.608032,0.882826,-0.445563,-0.137087,-0.045882,0.001754,0.055124
1722050965.9096,2024-07-26 20:29:25.909,1,false,0.447342,-0.300354,0.583069,0.608032,0.882826,-0.445563,-0.137087,-0.046005,0.001786,0.05508
1722050965.9409,2024-07-26 20:29:25.940,2,false,0.447422,-0.300354,0.583008,0.608032,0.879408,-0.424079,-0.143435,-0.045983,0.001742,0.055114
1722050965.9721,2024-07-26 20:29:25.972,3,false,0.447341,-0.300232,0.583069,0.608093,0.883314,-0.450935,-0.137575,-0.045986,0.001726,0.055182
1722050966.0034,2024-07-26 20:29:26.003,4,false,0.447303,-0.300171,0.58313,0.608093,0.883314,-0.450935,-0.137575,-0.04599,0.001712,0.055242
1722050966.0346,2024-07-26 20:29:26.034,5,false,0.447422,-0.300354,0.583008,0.608032,0.867201,-0.442145,-0.136599,-0.045969,0.001675,0.055346
1722050966.0659,2024-07-26 20:29:26.065,6,false,0.447185,-0.300232,0.583252,0.608032,0.867201,-0.442145,-0.136599,-0.045949,0.001642,0.055439
1722050966.0971,2024-07-26 20:29:26.097,7,false,0.44706,-0.300171,0.583252,0.608154,0.878431,-0.431891,-0.133181,-0.045932,0.001551,0.055473
1722050966.1284,2024-07-26 20:29:26.128,8,false,0.447057,-0.300171,0.583191,0.608215,0.894057,-0.436286,-0.135134,-0.045941,0.00153,0.055383
1722050966.1596,2024-07-26 20:29:26.159,9,false,0.447015,-0.30011,0.583191,0.608276,0.894057,-0.436286,-0.135134,-0.045888,0.001475,0.055264
1722050966.1909,2024-07-26 20:29:26.190,10,false,0.447097,-0.299988,0.583191,0.608276,0.879408,-0.442145,-0.121462,-0.045938,0.001401,0.055158
1722050966.2221,2024-07-26 20:29:26.222,11,false,0.447021,-0.299988,0.583313,0.608215,0.882338,-0.437263,-0.135622,-0.045995,0.001468,0.055196
1722050966.2534,2024-07-26 20:29:26.253,12,false,0.447024,-0.299988,0.583374,0.608154,0.882338,-0.437263,-0.135622,-0.046047,0.001529,0.055231
1722050966.2846,2024-07-26 20:29:26.284,13,false,0.446817,-0.300049,0.583374,0.608276,0.881361,-0.443122,-0.133669,-0.046044,0.001596,0.055128
1722050966.3159,2024-07-26 20:29:26.315,14,false,0.446689,-0.30011,0.583313,0.608398,0.871107,-0.434821,-0.120974,-0.046042,0.001692,0.055096
1722050966.3471,2024-07-26 20:29:26.347,15,false,0.446726,-0.299927,0.583252,0.608521,0.871107,-0.434821,-0.120974,-0.046137,0.001743,0.055068
1722050966.3784,2024-07-26 20:29:26.378,16,false,0.446643,-0.299927,0.583252,0.608582,0.877455,-0.42652,-0.142458,-0.046028,0.001764,0.055079
1722050966.4096,2024-07-26 20:29:26.409,17,false,0.446606,-0.299744,0.583374,0.608582,0.879896,-0.445563,-0.140993,-0.045954,0.001673,0.05504
1722050966.4409,2024-07-26 20:29:26.440,18,false,0.446567,-0.299683,0.583435,0.608582,0.865736,-0.434821,-0.130251,-0.046059,0.001603,0.054992
1722050966.4721,2024-07-26 20:29:26.472,19,false,0.446689,-0.299744,0.583374,0.608521,0.883314,-0.431891,-0.150759,-0.045994,0.001663,0.054889
1722050966.5034,2024-07-26 20:29:26.503,20,false,0.446731,-0.299805,0.583374,0.608459,0.882826,-0.438727,-0.125368,-0.045997,0.001716,0.054856
1722050966.5346,2024-07-26 20:29:26.534,21,false,0.446854,-0.299622,0.583374,0.608459,0.882826,-0.438727,-0.125368,-0.045999,0.001764,0.054827
1722050966.5659,2024-07-26 20:29:26.565,22,false,0.44681,-0.299683,0.583313,0.608521,0.876967,-0.437263,-0.139528,-0.04616,0.001661,0.054923
1722050966.5971,2024-07-26 20:29:26.597,23,false,0.446893,-0.299683,0.583313,0.608459,0.883803,-0.442145,-0.141482,-0.046158,0.001703,0.054924
1722050966.6284,2024-07-26 20:29:26.628,24,false,0.446736,-0.299561,0.583496,0.608459,0.883803,-0.442145,-0.141482,-0.046157,0.00174,0.054925
1722050966.6596,2024-07-26 20:29:26.659,25,false,0.446653,-0.299561,0.583496,0.608521,0.892592,-0.448981,-0.145388,-0.046192,0.001712,0.054987
1722050966.6909,2024-07-26 20:29:26.690,26,false,0.44673,-0.299683,0.583374,0.608521,0.885756,-0.443122,-0.13904,-0.046163,0.001688,0.054957
1722050966.7221,2024-07-26 20:29:26.722,27,false,0.446646,-0.299927,0.583313,0.608521,0.885756,-0.443122,-0.13904,-0.046136,0.001665,0.05493
1722050966.7534,2024-07-26 20:29:26.753,28,false,0.446649,-0.299927,0.583374,0.608459,0.883803,-0.439704,-0.147829,-0.046161,0.001657,0.054833
1722050966.7846,2024-07-26 20:29:26.784,29,false,0.446409,-0.299805,0.583557,0.608521,0.882826,-0.441169,-0.12488,-0.046025,0.00165,0.054891
1722050966.8159,2024-07-26 20:29:26.815,30,false,0.446646,-0.299927,0.583313,0.608521,0.892592,-0.448981,-0.145388,-0.046001,0.001705,0.054859
1722050966.8471,2024-07-26 20:29:26.847,31,false,0.446488,-0.299683,0.583496,0.608582,0.874525,-0.442634,-0.142947,-0.045978,0.001754,0.05483
1722050966.8784,2024-07-26 20:29:26.878,0,false,0.446404,-0.299683,0.583496,0.608643,0.881849,-0.448005,-0.134646,-0.045934,0.001811,0.054791
1722050966.9096,2024-07-26 20:29:26.909,1,false,0.446603,-0.299744,0.583313,0.608643,0.886732,-0.438727,-0.131228,-0.04593,0.001837,0.054903
1722050966.9409,2024-07-26 20:29:26.940,2,false,0.446523,-0.299744,0.583374,0.608643,0.886732,-0.438727,-0.131228,-0.045927,0.001861,0.055004
1722050966.9721,2024-07-26 20:29:26.972,3,false,0.446641,-0.299805,0.583252,0.608643,0.880385,-0.431891,-0.144411,-0.045924,0.001907,0.055033
1722050967.0034,2024-07-26 20:29:27.003,4,false,0.446767,-0.299866,0.583252,0.608521,0.882338,-0.446052,-0.130739,-0.045726,0.001948,0.05506
1722050967.0346,2024-07-26 20:29:27.034,5,false,0.446848,-0.299988,0.583191,0.608459,0.882338,-0.446052,-0.130739,-0.045548,0.001985,0.055084
1722050967.0659,2024-07-26 20:29:27.065,6,false,0.44677,-0.299866,0.583313,0.608459,0.880873,-0.42652,-0.128786,-0.045474,0.001945,0.055056
1722050967.0971,2024-07-26 20:29:27.097,7,false,0.446687,-0.299866,0.583313,0.608521,0.875013,-0.441657,-0.127321,-0.045467,0.002032,0.055215
1722050967.1284,2024-07-26 20:29:27.128,8,false,0.446444,-0.299866,0.583435,0.608582,0.875013,-0.441657,-0.127321,-0.045462,0.002109,0.055357
1722050967.1596,2024-07-26 20:29:27.159,9,false,0.446605,-0.299622,0.583374,0.608643,0.874525,-0.440681,-0.138064,-0.045518,0.002057,0.0554
1722050967.1909,2024-07-26 20:29:27.190,10,false,0.446602,-0.299377,0.583374,0.608765,0.882338,-0.430426,-0.137575,-0.045556,0.00212,0.055476
1722050967.2221,2024-07-26 20:29:27.222,11,false,0.446682,-0.299377,0.583313,0.608765,0.869642,-0.44361,-0.138552,-0.045615,0.002115,0.055458
1722050967.2534,2024-07-26 20:29:27.253,12,false,0.446678,-0.299377,0.583252,0.608826,0.882338,-0.434333,-0.12781,-0.045643,0.00205,0.055442
1722050967.2846,2024-07-26 20:29:27.284,13,false,0.446675,-0.299377,0.583191,0.608887,0.881361,-0.445075,-0.131228,-0.045571,0.002016,0.055281
1722050967.3159,2024-07-26 20:29:27.315,14,false,0.446717,-0.299438,0.583191,0.608826,0.881361,-0.445075,-0.131228,-0.045616,0.002071,0.055234
1722050967.3471,2024-07-26 20:29:27.347,15,false,0.44663,-0.299438,0.58313,0.608948,0.886244,-0.437751,-0.14197,-0.045595,0.001998,0.055228
1722050967.3784,2024-07-26 20:29:27.378,16,false,0.44659,-0.2995,0.58313,0.608948,0.877455,-0.436286,-0.148806,-0.045638,0.001957,0.055101
1722050967.4096,2024-07-26 20:29:27.409,17,false,0.446505,-0.299377,0.58313,0.60907,0.877455,-0.436286,-0.148806,-0.045676,0.00192,0.054987
1722050967.4409,2024-07-26 20:29:27.440,18,false,0.446587,-0.299255,0.58313,0.60907,0.871107,-0.437751,-0.139528,-0.045711,0.001923,0.055067
1722050967.4721,2024-07-26 20:29:27.472,19,false,0.446546,-0.299316,0.58313,0.60907,0.873549,-0.442634,-0.140017,-0.045644,0.001926,0.055041
1722050967.5034,2024-07-26 20:29:27.503,20,false,0.446425,-0.299377,0.583191,0.60907,0.873549,-0.442634,-0.140017,-0.04567,0.00188,0.055067
1722050967.5346,2024-07-26 20:29:27.534,21,false,0.446349,-0.299377,0.583313,0.609009,0.892103,-0.435798,-0.134157,-0.045607,0.001851,0.055078
1722050967.5659,2024-07-26 20:29:27.565,22,false,0.446223,-0.299316,0.583313,0.609131,0.880385,-0.438239,-0.140993,-0.045661,0.001873,0.054978
1722050967.5971,2024-07-26 20:29:27.597,23,false,0.446425,-0.299377,0.583191,0.60907,0.871107,-0.437751,-0.139528,-0.045697,0.002089,0.054937
1722050967.6284,2024-07-26 20:29:27.628,24,false,0.446223,-0.299316,0.583313,0.609131,0.877455,-0.447028,-0.133669,-0.045729,0.002283,0.0549
1722050967.6596,2024-07-26 20:29:27.659,25,false,0.446148,-0.299438,0.583435,0.609009,0.878431,-0.452399,-0.133181,-0.045697,0.00225,0.054866
1722050967.6909,2024-07-26 20:29:27.690,26,false,0.44615,-0.299561,0.583435,0.608948,0.879408,-0.453376,-0.134646,-0.045718,0.002135,0.054848
1722050967.7221,2024-07-26 20:29:27.722,27,false,0.446151,-0.299683,0.583435,0.608887,0.879408,-0.453376,-0.134646,-0.04565,0.002141,0.054845
1722050967.7534,2024-07-26 20:29:27.753,28,false,0.446271,-0.299866,0.583313,0.608826,0.865736,-0.436774,-0.126345,-0.0457,0.002098,0.054914
1722050967.7846,2024-07-26 20:29:27.784,29,false,0.44615,-0.299927,0.583374,0.608826,0.874525,-0.435798,-0.141482,-0.045671,0.002022,0.054904
1722050967.8159,2024-07-26 20:29:27.815,30,false,0.446277,-0.30011,0.583374,0.608643,0.874525,-0.435798,-0.141482,-0.045645,0.001954,0.054895
1722050967.8471,2024-07-26 20:29:27.847,31,false,0.446403,-0.300293,0.583374,0.608459,0.889662,-0.457282,-0.125368,-0.045719,0.001832,0.054947
1722050967.8784,2024-07-26 20:29:27.878,0,false,0.446447,-0.300476,0.583374,0.608337,0.887709,-0.442145,-0.137087,-0.045835,0.001734,0.05486
1722050967.9096,2024-07-26 20:29:27.909,1,false,0.446246,-0.300537,0.583496,0.608337,0.887709,-0.442145,-0.137087,-0.045939,0.001646,0.054782
1722050967.9409,2024-07-26 20:29:27.940,2,false,0.446204,-0.300476,0.583496,0.608398,0.881361,-0.431891,-0.130251,-0.045935,0.001714,0.054748
1722050967.9721,2024-07-26 20:29:27.972,3,false,0.446163,-0.300537,0.583496,0.608398,0.876478,-0.437751,-0.138552,-0.046029,0.001689,0.054681
1722050968.0034,2024-07-26 20:29:28.003,4,false,0.446326,-0.300537,0.583435,0.608337,0.882826,-0.438239,-0.12488,-0.046126,0.001715,0.05467
1722050968.0346,2024-07-26 20:29:28.034,5,false,0.446321,-0.300415,0.583374,0.608459,0.876478,-0.437751,-0.128298,-0.046091,0.001678,0.054745
1722050968.0659,2024-07-26 20:29:28.065,6,false,0.44644,-0.300476,0.583252,0.608459,0.886732,-0.432868,-0.142947,-0.045974,0.001718,0.054739
1722050968.0971,2024-07-26 20:29:28.097,7,false,0.446604,-0.300598,0.583191,0.608337,0.886732,-0.432868,-0.142947,-0.045869,0.001753,0.054734
1722050968.1284,2024-07-26 20:29:28.128,8,false,0.446607,-0.300598,0.583252,0.608276,0.87599,-0.444099,-0.120485,-0.045872,0.00181,0.054852
1722050968.1596,2024-07-26 20:29:28.159,9,false,0.446608,-0.30072,0.583252,0.608215,0.869154,-0.431403,-0.123415,-0.045875,0.001837,0.054835
1722050968.1909,2024-07-26 20:29:28.190,10,false,0.446647,-0.300903,0.583191,0.608154,0.869154,-0.431403,-0.123415,-0.045877,0.001763,0.054943
1722050968.2221,2024-07-26 20:29:28.222,11,false,0.44681,-0.300903,0.58313,0.608093,0.888197,-0.442145,-0.137087,-0.045892,0.001745,0.055052
1722050968.2534,2024-07-26 20:29:28.253,12,false,0.446852,-0.300964,0.58313,0.608032,0.875013,-0.443122,-0.13904,-0.045917,0.001778,0.055076
1722050968.2846,2024-07-26 20:29:28.284,13,false,0.446777,-0.301086,0.583252,0.60791,0.875013,-0.443122,-0.13904,-0.045939,0.001808,0.055098
1722050968.3159,2024-07-26 20:29:28.315,14,false,0.446649,-0.301147,0.583191,0.608032,0.885756,-0.439704,-0.133181,-0.045935,0.001737,0.055143
1722050968.3471,2024-07-26 20:29:28.347,15,false,0.446852,-0.300964,0.58313,0.608032,0.885756,-0.439704,-0.133181,-0.045932,0.001673,0.055183
1722050968.3784,2024-07-26 20:29:28.378,16,false,0.446768,-0.301331,0.583069,0.607971,0.879896,-0.44361,-0.124392,-0.045831,0.001591,0.05528
1722050968.4096,2024-07-26 20:29:28.409,17,false,0.446602,-0.301331,0.583069,0.608093,0.883803,-0.435309,-0.134157,-0.045789,0.00153,0.055209
1722050968.4409,2024-07-26 20:29:28.440,18,false,0.44648,-0.30127,0.58313,0.608154,0.883803,-0.435309,-0.134157,-0.045788,0.001511,0.055144
1722050968.4721,2024-07-26 20:29:28.472,19,false,0.446237,-0.301147,0.583252,0.608276,0.883803,-0.42652,-0.129274,-0.045713,0.00158,0.055233
1722050968.5034,2024-07-26 20:29:28.503,20,false,0.446275,-0.301208,0.583191,0.608276,0.875502,-0.431403,-0.138064,-0.045744,0.001703,0.055227
1722050968.5346,2024-07-26 20:29:28.534,21,false,0.446317,-0.30127,0.583191,0.608215,0.875502,-0.431403,-0.138064,-0.045772,0.001813,0.055222
1722050968.5659,2024-07-26 20:29:28.565,22,false,0.446357,-0.301453,0.58313,0.608154,0.888685,-0.43238,-0.130739,-0.045833,0.001912,0.055181
1722050968.5971,2024-07-26 20:29:28.597,23,false,0.446398,-0.301514,0.58313,0.608093,0.886732,-0.447517,-0.134157,-0.04584,0.001929,0.055071
1722050968.6284,2024-07-26 20:29:28.628,24,false,0.446239,-0.301514,0.583252,0.608093,0.886732,-0.447517,-0.134157,-0.045846,0.001943,0.054972
1722050968.6596,2024-07-26 20:29:28.659,25,false,0.446163,-0.301636,0.583374,0.607971,0.876478,-0.433845,-0.137575,-0.045949,0.002042,0.054943
1722050968.6909,2024-07-26 20:29:28.690,26,false,0.446161,-0.301758,0.583313,0.607971,0.891615,-0.43238,-0.131228,-0.045932,0.001972,0.05493
1722050968.7221,2024-07-26 20:29:28.722,27,false,0.446085,-0.30188,0.583435,0.607849,0.891615,-0.43238,-0.131228,-0.045916,0.001909,0.054918
1722050968.7534,2024-07-26 20:29:28.753,28,false,0.446002,-0.302002,0.583435,0.607849,0.891615,-0.43238,-0.131228,-0.045902,0.001914,0.055005
1722050968.7846,2024-07-26 20:29:28.784,29,false,0.446082,-0.302124,0.583374,0.607788,0.881849,-0.436286,-0.133669,-0.045804,0.001869,0.054998
1722050968.8159,2024-07-26 20:29:28.815,30,false,0.446162,-0.302124,0.583313,0.607788,0.873549,-0.442145,-0.12781,-0.045814,0.001889,0.054967
1722050968.8471,2024-07-26 20:29:28.847,31,false,0.446158,-0.302246,0.583252,0.607788,0.873549,-0.442145,-0.12781,-0.045822,0.001908,0.054939
1722050968.8784,2024-07-26 20:29:28.878,0,false,0.446038,-0.302307,0.583313,0.607788,0.89308,-0.444099,-0.141482,-0.045781,0.001912,0.054987
1722050968.9096,2024-07-26 20:29:28.909,1,false,0.446035,-0.302429,0.583252,0.607788,0.89015,-0.428473,-0.132692,-0.045756,0.002014,0.055043
1722050968.9409,2024-07-26 20:29:28.940,2,false,0.44607,-0.30249,0.58313,0.607849,0.89015,-0.428473,-0.132692,-0.045734,0.002106,0.055093
1722050968.9721,2024-07-26 20:29:28.972,3,false,0.446153,-0.30249,0.58313,0.607788,0.884779,-0.436774,-0.129763,-0.045641,0.002115,0.055187
1722050969.0034,2024-07-26 20:29:29.003,4,false,0.446153,-0.30249,0.58313,0.607788,0.883314,-0.439216,-0.129274,-0.045654,0.002123,0.055271
1722050969.0346,2024-07-26 20:29:29.034,5,false,0.446153,-0.30249,0.58313,0.607788,0.883314,-0.439216,-0.129274,-0.045667,0.002131,0.055347
1722050969.0659,2024-07-26 20:29:29.065,6,false,0.446153,-0.302368,0.58313,0.607849,0.892592,-0.444099,-0.131228,-0.045531,0.002149,0.055196
1722050969.0971,2024-07-26 20:29:29.097,7,false,0.446195,-0.302429,0.58313,0.607788,0.880385,-0.42652,-0.143923,-0.045556,0.002154,0.055133
1722050969.1284,2024-07-26 20:29:29.128,8,false,0.446153,-0.30249,0.58313,0.607788,0.884779,-0.436774,-0.129763,-0.045553,0.00211,0.055027
1722050969.1596,2024-07-26 20:29:29.159,9,false,0.445907,-0.30249,0.583191,0.60791,0.883803,-0.436286,-0.129763,-0.045551,0.00207,0.054932
1722050969.1909,2024-07-26 20:29:29.190,10,false,0.44599,-0.302368,0.583191,0.60791,0.875013,-0.439704,-0.13611,-0.045647,0.002009,0.054969
1722050969.2221,2024-07-26 20:29:29.222,11,false,0.44599,-0.302246,0.583191,0.607971,0.885756,-0.427497,-0.134157,-0.045611,0.002077,0.054965
1722050969.2534,2024-07-26 20:29:29.253,12,false,0.445951,-0.302185,0.583252,0.607971,0.885756,-0.427497,-0.134157,-0.045579,0.002138,0.054962
1722050969.2846,2024-07-26 20:29:29.284,13,false,0.445951,-0.302185,0.583252,0.607971,0.880385,-0.434333,-0.128786,-0.045562,0.002022,0.055008
1722050969.3159,2024-07-26 20:29:29.315,14,false,0.446076,-0.302124,0.583252,0.60791,0.89015,-0.42945,-0.140505,-0.045486,0.001978,0.055086
1722050969.3471,2024-07-26 20:29:29.347,15,false,0.446117,-0.302185,0.583252,0.607849,0.89015,-0.42945,-0.140505,-0.045418,0.001939,0.055156
1722050969.3784,2024-07-26 20:29:29.378,16,false,0.446281,-0.302307,0.583191,0.607727,0.885756,-0.437751,-0.135622,-0.045478,0.001879,0.055329
1722050969.4096,2024-07-26 20:29:29.409,17,false,0.446402,-0.302368,0.58313,0.607666,0.900404,-0.425055,-0.133669,-0.04541,0.00185,0.055424
1722050969.4409,2024-07-26 20:29:29.440,18,false,0.446483,-0.302612,0.583069,0.607544,0.900404,-0.425055,-0.133669,-0.045349,0.001824,0.055509
1722050969.4721,2024-07-26 20:29:29.472,19,false,0.446122,-0.302429,0.583313,0.607666,0.900404,-0.425055,-0.133669,-0.045416,0.001898,0.055561
1722050969.5034,2024-07-26 20:29:29.503,20,false,0.446042,-0.302429,0.583374,0.607666,0.884779,-0.434333,-0.128298,-0.045428,0.001916,0.05562
1722050969.5346,2024-07-26 20:29:29.534,21,false,0.446039,-0.302429,0.583313,0.607727,0.884779,-0.435309,-0.126345,-0.045487,0.001919,0.055576
1722050969.5659,2024-07-26 20:29:29.565,22,false,0.446003,-0.302246,0.583435,0.607727,0.884779,-0.435309,-0.126345,-0.045541,0.001923,0.055536
1722050969.5971,2024-07-26 20:29:29.597,23,false,0.445875,-0.302185,0.583374,0.60791,0.888197,-0.440681,-0.147341,-0.045638,0.001901,0.05539
1722050969.6284,2024-07-26 20:29:29.628,24,false,0.445871,-0.302185,0.583313,0.607971,0.87892,-0.430426,-0.134157,-0.045554,0.001931,0.055369
1722050969.6596,2024-07-26 20:29:29.659,25,false,0.445756,-0.302124,0.583496,0.60791,0.87892,-0.430426,-0.134157,-0.045601,0.001835,0.05535
1722050969.6909,2024-07-26 20:29:29.690,26,false,0.445798,-0.302185,0.583496,0.607849,0.888197,-0.428473,-0.131228,-0.045618,0.001786,0.055418
1722050969.7221,2024-07-26 20:29:29.722,27,false,0.445762,-0.302002,0.583618,0.607849,0.886244,-0.433845,-0.129763,-0.045598,0.001766,0.055357
1722050969.7534,2024-07-26 20:29:29.753,28,false,0.445839,-0.302002,0.583496,0.60791,0.886244,-0.433845,-0.129763,-0.045579,0.001748,0.055302
1722050969.7846,2024-07-26 20:29:29.784,29,false,0.445833,-0.302124,0.583374,0.607971,0.882826,-0.427985,-0.129274,-0.04566,0.001647,0.05529
1722050969.8159,2024-07-26 20:29:29.815,30,false,0.445714,-0.301941,0.583496,0.608032,0.879896,-0.433356,-0.133181,-0.045732,0.001738,0.055339
1722050969.8471,2024-07-26 20:29:29.847,31,false,0.445631,-0.301941,0.583496,0.608093,0.879896,-0.433356,-0.133181,-0.045798,0.001821,0.055384
1722050969.8784,2024-07-26 20:29:29.878,0,false,0.445833,-0.302124,0.583374,0.607971,0.880385,-0.428473,-0.13611,-0.045881,0.001834,0.055388
1722050969.9096,2024-07-26 20:29:29.909,1,false,0.445628,-0.302063,0.583435,0.608093,0.880385,-0.428473,-0.13611,-0.045932,0.00187,0.055367
1722050969.9409,2024-07-26 20:29:29.940,2,false,0.445704,-0.302063,0.583313,0.608154,0.884779,-0.426032,-0.138064,-0.045868,0.001915,0.05536
1722050969.9721,2024-07-26 20:29:29.972,3,false,0.4455,-0.302124,0.583374,0.608215,0.886244,-0.43238,-0.128786,-0.045932,0.001895,0.055232
1722050970.0034,2024-07-26 20:29:30.003,4,false,0.445502,-0.302002,0.583435,0.608215,0.886244,-0.43238,-0.128786,-0.04599,0.001876,0.055116
1722050970.0346,2024-07-26 20:29:30.034,5,false,0.445383,-0.301819,0.583557,0.608276,0.884779,-0.445075,-0.127321,-0.046005,0.001896,0.055135
1722050970.0659,2024-07-26 20:29:30.065,6,false,0.445259,-0.30188,0.583557,0.608337,0.881361,-0.444587,-0.139528,-0.045933,0.001853,0.055236
1722050970.0971,2024-07-26 20:29:30.097,7,false,0.445217,-0.301819,0.583557,0.608398,0.881361,-0.444587,-0.139528,-0.045869,0.001814,0.055328
1722050970.1284,2024-07-26 20:29:30.128,8,false,0.445213,-0.301819,0.583496,0.608459,0.892103,-0.445075,-0.130739,-0.045884,0.001828,0.055337
1722050970.1596,2024-07-26 20:29:30.159,9,false,0.445293,-0.301819,0.583435,0.608459,0.886244,-0.443122,-0.14197,-0.04591,0.001816,0.055334
1722050970.1909,2024-07-26 20:29:30.190,10,false,0.445456,-0.301697,0.583374,0.608459,0.886244,-0.443122,-0.14197,-0.045933,0.001805,0.05533
1722050970.2221,2024-07-26 20:29:30.222,11,false,0.445538,-0.301575,0.583374,0.608459,0.881849,-0.439216,-0.137087,-0.04593,0.001735,0.055266
1722050970.2534,2024-07-26 20:29:30.253,12,false,0.445457,-0.301331,0.583435,0.608582,0.879896,-0.417243,-0.121462,-0.045915,0.001781,0.055318
1722050970.2846,2024-07-26 20:29:30.284,13,false,0.445206,-0.301208,0.583435,0.608826,0.890639,-0.427985,-0.138064,-0.045852,0.001749,0.05534
1722050970.3159,2024-07-26 20:29:30.315,14,false,0.445293,-0.301208,0.583496,0.608704,0.879896,-0.425055,-0.12488,-0.045808,0.001916,0.055349
1722050970.3471,2024-07-26 20:29:30.347,15,false,0.445251,-0.301147,0.583496,0.608765,0.873549,-0.429938,-0.136599,-0.045817,0.001957,0.055368
1722050970.3784,2024-07-26 20:29:30.378,16,false,0.445087,-0.301147,0.583557,0.608826,0.873549,-0.429938,-0.136599,-0.045825,0.001993,0.055385
1722050970.4096,2024-07-26 20:29:30.409,17,false,0.445091,-0.301147,0.583618,0.608765,0.897475,-0.428962,-0.133181,-0.045784,0.001867,0.055389
1722050970.4409,2024-07-26 20:29:30.440,18,false,0.445005,-0.30127,0.583557,0.608826,0.891615,-0.451423,-0.129763,-0.045698,0.001827,0.055319
1722050970.4721,2024-07-26 20:29:30.472,19,false,0.445046,-0.301208,0.583557,0.608826,0.891615,-0.451423,-0.129763,-0.04562,0.00179,0.055256
1722050970.5034,2024-07-26 20:29:30.503,20,false,0.445046,-0.301208,0.583557,0.608826,0.876967,-0.436774,-0.126833,-0.045709,0.001758,0.055285
1722050970.5346,2024-07-26 20:29:30.534,21,false,0.445166,-0.301025,0.583496,0.608887,0.866224,-0.444099,-0.130251,-0.045753,0.001729,0.05531
1722050970.5659,2024-07-26 20:29:30.565,22,false,0.44525,-0.301025,0.583496,0.608826,0.866224,-0.444099,-0.130251,-0.045792,0.001702,0.055334
1722050970.5971,2024-07-26 20:29:30.597,23,false,0.445169,-0.300903,0.583557,0.608887,0.888197,-0.439704,-0.134646,-0.045692,0.001788,0.055379
1722050970.6284,2024-07-26 20:29:30.628,24,false,0.445175,-0.300781,0.583679,0.608826,0.872572,-0.440192,-0.137087,-0.045616,0.001817,0.055188
1722050970.6596,2024-07-26 20:29:30.659,25,false,0.44525,-0.301025,0.583496,0.608826,0.876967,-0.436774,-0.126833,-0.045705,0.001867,0.055113
1722050970.6909,2024-07-26 20:29:30.690,26,false,0.44497,-0.300842,0.58374,0.608887,0.883803,-0.442634,-0.128786,-0.045785,0.001912,0.055047
1722050970.7221,2024-07-26 20:29:30.722,27,false,0.444928,-0.300781,0.58374,0.608948,0.889662,-0.440681,-0.120974,-0.04576,0.001953,0.055096
1722050970.7534,2024-07-26 20:29:30.753,28,false,0.444997,-0.300781,0.583496,0.609131,0.875502,-0.44654,-0.132692,-0.045933,0.001868,0.055141
1722050970.7846,2024-07-26 20:29:30.784,29,false,0.444797,-0.300598,0.583679,0.609192,0.875502,-0.44654,-0.132692,-0.046088,0.001791,0.055181
1722050970.8159,2024-07-26 20:29:30.815,30,false,0.4448,-0.300476,0.58374,0.609192,0.898939,-0.435798,-0.133181,-0.046216,0.001746,0.055181
1722050970.8471,2024-07-26 20:29:30.847,31,false,0.444716,-0.300476,0.58374,0.609253,0.882338,-0.434821,-0.139528,-0.046245,0.001718,0.055156
1722050970.8784,2024-07-26 20:29:30.878,0,false,0.444755,-0.300537,0.583679,0.609253,0.882338,-0.434821,-0.139528,-0.046271,0.001693,0.055133
1722050970.9096,2024-07-26 20:29:30.909,1,false,0.444835,-0.300537,0.583618,0.609253,0.884779,-0.447517,-0.122927,-0.046222,0.001719,0.055199
1722050970.9409,2024-07-26 20:29:30.940,2,false,0.44487,-0.300598,0.583496,0.609314,0.876967,-0.448005,-0.139528,-0.0463,0.001644,0.055197
1722050970.9721,2024-07-26 20:29:30.972,3,false,0.444831,-0.300537,0.583557,0.609314,0.876967,-0.448005,-0.139528,-0.046369,0.001578,0.055195
1722050971.0034,2024-07-26 20:29:31.003,4,false,0.445037,-0.300598,0.583496,0.609192,0.887221,-0.434821,-0.140505,-0.04631,0.001554,0.055034
1722050971.0346,2024-07-26 20:29:31.034,5,false,0.445,-0.300659,0.583557,0.609131,0.881361,-0.434333,-0.138552,-0.04622,0.001557,0.055048
1722050971.0659,2024-07-26 20:29:31.065,6,false,0.444961,-0.300598,0.583618,0.609131,0.883803,-0.432868,-0.133181,-0.046237,0.001597,0.055025
1722050971.0971,2024-07-26 20:29:31.097,7,false,0.444883,-0.300476,0.58374,0.609131,0.884291,-0.441169,-0.137575,-0.046191,0.001596,0.055064
1722050971.1284,2024-07-26 20:29:31.128,8,false,0.444883,-0.300476,0.58374,0.609131,0.879408,-0.44654,-0.128786,-0.046235,0.001717,0.055075
1722050971.1596,2024-07-26 20:29:31.159,9,false,0.444843,-0.300293,0.583801,0.609192,0.879408,-0.44654,-0.128786,-0.046275,0.001826,0.055086
1722050971.1909,2024-07-26 20:29:31.190,10,false,0.444801,-0.300232,0.583801,0.609253,0.87892,-0.442145,-0.134646,-0.046115,0.001998,0.055021
1722050971.2221,2024-07-26 20:29:31.222,11,false,0.444961,-0.300232,0.583679,0.609253,0.879896,-0.436286,-0.133669,-0.045971,0.001969,0.054964
1722050971.2534,2024-07-26 20:29:31.253,12,false,0.445047,-0.30011,0.58374,0.609192,0.879896,-0.436286,-0.133669,-0.045854,0.001931,0.055009
1722050971.2846,2024-07-26 20:29:31.284,13,false,0.445002,-0.300171,0.583679,0.609253,0.879896,-0.441657,-0.146365,-0.045883,0.001969,0.055063
1722050971.3159,2024-07-26 20:29:31.315,14,false,0.445123,-0.30011,0.583618,0.609253,0.880873,-0.444587,-0.137087,-0.045873,0.002212,0.055038
1722050971.3471,2024-07-26 20:29:31.347,15,false,0.445287,-0.30011,0.583557,0.609192,0.880873,-0.444587,-0.137087,-0.045863,0.00243,0.055015
1722050971.3784,2024-07-26 20:29:31.378,16,false,0.445293,-0.299988,0.583679,0.609131,0.875013,-0.44361,-0.12195,-0.045891,0.002334,0.055104
1722050971.4096,2024-07-26 20:29:31.409,17,false,0.445337,-0.299927,0.58374,0.60907,0.876478,-0.44361,-0.135134,-0.045806,0.002235,0.055136
1722050971.4409,2024-07-26 20:29:31.440,18,false,0.445287,-0.30011,0.583557,0.609192,0.879896,-0.441657,-0.146365,-0.045877,0.002121,0.055116
1722050971.4721,2024-07-26 20:29:31.472,19,false,0.445294,-0.30011,0.583679,0.60907,0.880873,-0.445075,-0.13611,-0.04594,0.002019,0.055097
1722050971.5034,2024-07-26 20:29:31.503,20,false,0.445173,-0.300171,0.58374,0.60907,0.888685,-0.436774,-0.138064,-0.045924,0.002012,0.055105
1722050971.5346,2024-07-26 20:29:31.534,21,false,0.445055,-0.300232,0.583862,0.609009,0.880873,-0.451911,-0.133669,-0.046019,0.001896,0.055186
1722050971.5659,2024-07-26 20:29:31.565,22,false,0.445055,-0.300232,0.583862,0.609009,0.880873,-0.451911,-0.133669,-0.046105,0.001792,0.055258
1722050971.5971,2024-07-26 20:29:31.597,23,false,0.444852,-0.300171,0.583984,0.60907,0.87892,-0.447517,-0.124392,-0.046108,0.001845,0.055323
1722050971.6284,2024-07-26 20:29:31.628,24,false,0.44481,-0.30011,0.583984,0.609131,0.877455,-0.445563,-0.140993,-0.045965,0.001831,0.055382
1722050971.6596,2024-07-26 20:29:31.659,25,false,0.444768,-0.300049,0.583984,0.609192,0.877455,-0.445563,-0.140993,-0.04591,0.001746,0.055325
1722050971.6909,2024-07-26 20:29:31.690,26,false,0.44468,-0.300049,0.583923,0.609314,0.875013,-0.444099,-0.134646,-0.045933,0.001596,0.055261
1722050971.7221,2024-07-26 20:29:31.722,27,false,0.444679,-0.299927,0.583923,0.609375,0.872572,-0.44361,-0.140993,-0.046052,0.001766,0.055411
1722050971.7534,2024-07-26 20:29:31.753,28,false,0.444683,-0.299927,0.583984,0.609314,0.872572,-0.44361,-0.140993,-0.046147,0.001662,0.055388
1722050971.7846,2024-07-26 20:29:31.784,29,false,0.444723,-0.30011,0.583923,0.609253,0.872572,-0.44361,-0.140993,-0.046232,0.001569,0.055367
1722050971.8159,2024-07-26 20:29:31.815,30,false,0.444725,-0.299988,0.583984,0.609253,0.878431,-0.438239,-0.127321,-0.046308,0.001608,0.055311
1722050971.8471,2024-07-26 20:29:31.847,31,false,0.444515,-0.299927,0.583984,0.609436,0.874525,-0.429938,-0.128298,-0.046292,0.001679,0.05531
1722050971.8784,2024-07-26 20:29:31.878,0,false,0.444439,-0.299927,0.584106,0.609375,0.874525,-0.429938,-0.128298,-0.046277,0.001743,0.055309
1722050971.9096,2024-07-26 20:29:31.909,1,false,0.444397,-0.299988,0.584106,0.609375,0.871595,-0.438239,-0.126833,-0.046251,0.001788,0.055356
1722050971.9409,2024-07-26 20:29:31.940,2,false,0.444356,-0.300049,0.584106,0.609375,0.888197,-0.447028,-0.132692,-0.046204,0.001805,0.055363
1722050971.9721,2024-07-26 20:29:31.972,3,false,0.444397,-0.299988,0.584106,0.609375,0.888197,-0.447028,-0.132692,-0.046088,0.001881,0.055369
1722050972.0034,2024-07-26 20:29:32.003,4,false,0.444439,-0.299927,0.584106,0.609375,0.878431,-0.448981,-0.134646,-0.045984,0.001949,0.055411
1722050972.0346,2024-07-26 20:29:32.034,5,false,0.444478,-0.299988,0.584045,0.609375,0.876967,-0.436774,-0.122927,-0.04589,0.001949,0.055387
1722050972.0659,2024-07-26 20:29:32.065,6,false,0.44448,-0.299866,0.584106,0.609375,0.876967,-0.436774,-0.122927,-0.045805,0.00195,0.055366
1722050972.0971,2024-07-26 20:29:32.097,7,false,0.444522,-0.299927,0.584106,0.609314,0.885267,-0.443122,-0.133669,-0.045815,0.001865,0.05542
1722050972.1284,2024-07-26 20:29:32.128,8,false,0.444683,-0.299927,0.583984,0.609314,0.882338,-0.436774,-0.135622,-0.045811,0.001837,0.05542
1722050972.1596,2024-07-26 20:29:32.159,9,false,0.444561,-0.299988,0.584045,0.609314,0.882338,-0.436774,-0.135622,-0.045808,0.001812,0.05542
1722050972.1909,2024-07-26 20:29:32.190,10,false,0.444522,-0.299927,0.584106,0.609314,0.883803,-0.441657,-0.14197,-0.045865,0.00185,0.055359
1722050972.2221,2024-07-26 20:29:32.222,11,false,0.444604,-0.300049,0.584045,0.609253,0.883803,-0.441657,-0.14197,-0.045918,0.001885,0.055305
1722050972.2534,2024-07-26 20:29:32.253,12,false,0.444648,-0.299988,0.584106,0.609192,0.886244,-0.444099,-0.135622,-0.045977,0.001904,0.055304
1722050972.2846,2024-07-26 20:29:32.284,13,false,0.44473,-0.30011,0.584045,0.609131,0.875502,-0.446052,-0.11902,-0.045969,0.00186,0.055242
1722050972.3159,2024-07-26 20:29:32.315,14,false,0.444603,-0.300293,0.583984,0.609192,0.875502,-0.446052,-0.11902,-0.045962,0.001821,0.055187
1722050972.3471,2024-07-26 20:29:32.347,15,false,0.444642,-0.300354,0.583923,0.609192,0.877943,-0.442145,-0.134157,-0.045846,0.001834,0.05521
1722050972.3784,2024-07-26 20:29:32.378,16,false,0.444474,-0.300354,0.583923,0.609314,0.873549,-0.449958,-0.128298,-0.045925,0.001907,0.055268
1722050972.4096,2024-07-26 20:29:32.409,17,false,0.444599,-0.300293,0.583923,0.609253,0.873549,-0.449958,-0.128298,-0.045995,0.001912,0.05532
1722050972.4409,2024-07-26 20:29:32.440,18,false,0.4446,-0.300415,0.583923,0.609192,0.886732,-0.44361,-0.132692,-0.046059,0.001855,0.05533
1722050972.4721,2024-07-26 20:29:32.472,19,false,0.444723,-0.300476,0.583862,0.609131,0.887221,-0.452399,-0.133181,-0.045994,0.001889,0.055376
1722050972.5034,2024-07-26 20:29:32.503,20,false,0.444837,-0.300415,0.583679,0.609253,0.887221,-0.452399,-0.133181,-0.045936,0.00192,0.055417
1722050972.5346,2024-07-26 20:29:32.534,21,false,0.44488,-0.300476,0.583679,0.609192,0.895521,-0.448493,-0.134646,-0.04603,0.001874,0.055429
1722050972.5659,2024-07-26 20:29:32.565,22,false,0.444635,-0.30072,0.58374,0.609192,0.884779,-0.440681,-0.132692,-0.04598,0.001919,0.055477
1722050972.5971,2024-07-26 20:29:32.597,23,false,0.444553,-0.300598,0.583801,0.609253,0.889662,-0.430426,-0.131228,-0.045923,0.0018,0.055386
1722050972.6284,2024-07-26 20:29:32.628,24,false,0.444383,-0.300598,0.58374,0.609436,0.876967,-0.434821,-0.129763,-0.045762,0.001791,0.055402
1722050972.6596,2024-07-26 20:29:32.659,25,false,0.444299,-0.300598,0.58374,0.609497,0.881361,-0.445563,-0.127321,-0.045776,0.001758,0.055331
1722050972.6909,2024-07-26 20:29:32.690,26,false,0.444344,-0.300537,0.583801,0.609436,0.881361,-0.445563,-0.127321,-0.045788,0.001729,0.055266
1722050972.7221,2024-07-26 20:29:32.722,27,false,0.444428,-0.300659,0.583801,0.609314,0.887221,-0.434333,-0.131716,-0.045787,0.001751,0.055221
1722050972.7534,2024-07-26 20:29:32.753,28,false,0.444227,-0.30072,0.583923,0.609314,0.887709,-0.440192,-0.130739,-0.045871,0.001772,0.05518
1722050972.7846,2024-07-26 20:29:32.784,29,false,0.444144,-0.300842,0.583923,0.609314,0.887709,-0.440192,-0.130739,-0.045947,0.00179,0.055143
1722050972.8159,2024-07-26 20:29:32.815,30,false,0.444016,-0.301025,0.583862,0.609375,0.881361,-0.431403,-0.134157,-0.046052,0.001831,0.055146
1722050972.8471,2024-07-26 20:29:32.847,31,false,0.443975,-0.301086,0.583862,0.609375,0.871107,-0.435798,-0.130739,-0.045939,0.001916,0.055076
1722050972.8784,2024-07-26 20:29:32.878,0,false,0.443938,-0.30127,0.583923,0.609253,0.871107,-0.435798,-0.130739,-0.045838,0.001993,0.055013
1722050972.9096,2024-07-26 20:29:32.909,1,false,0.444021,-0.30127,0.583923,0.609192,0.884779,-0.42945,-0.141482,-0.045856,0.002013,0.055029
1722050972.9409,2024-07-26 20:29:32.940,2,false,0.444064,-0.301331,0.583923,0.609131,0.87892,-0.431403,-0.147829,-0.045934,0.002007,0.055129
1722050972.9721,2024-07-26 20:29:32.972,3,false,0.443938,-0.30127,0.583923,0.609253,0.881361,-0.431403,-0.134157,-0.045894,0.002014,0.055146
1722050973.0034,2024-07-26 20:29:33.003,4,false,0.44419,-0.301392,0.583923,0.609009,0.871595,-0.436774,-0.129274,-0.045858,0.00202,0.055162
1722050973.0346,2024-07-26 20:29:33.034,5,false,0.444114,-0.301514,0.584045,0.608887,0.880873,-0.431891,-0.127321,-0.045776,0.001977,0.055163
1722050973.0659,2024-07-26 20:29:33.065,6,false,0.444156,-0.301575,0.584045,0.608826,0.884291,-0.426032,-0.135134,-0.045776,0.001975,0.055128
1722050973.0971,2024-07-26 20:29:33.097,7,false,0.444275,-0.301636,0.583923,0.608826,0.884291,-0.426032,-0.135134,-0.045776,0.001972,0.055096
1722050973.1284,2024-07-26 20:29:33.128,8,false,0.444186,-0.301758,0.583801,0.608948,0.885267,-0.445075,-0.131716,-0.045679,0.002032,0.055275
1722050973.1596,2024-07-26 20:29:33.159,9,false,0.44414,-0.301697,0.58374,0.60907,0.874037,-0.451423,-0.131716,-0.045689,0.001987,0.055229
1722050973.1909,2024-07-26 20:29:33.190,10,false,0.444181,-0.301636,0.58374,0.60907,0.874037,-0.451423,-0.131716,-0.045697,0.001947,0.055187
1722050973.2221,2024-07-26 20:29:33.222,11,false,0.444259,-0.301758,0.583618,0.60907,0.888197,-0.449958,-0.13611,-0.045766,0.001948,0.055296
1722050973.2534,2024-07-26 20:29:33.253,12,false,0.444458,-0.301819,0.583435,0.60907,0.877455,-0.436774,-0.125856,-0.045743,0.001924,0.055296
1722050973.2846,2024-07-26 20:29:33.284,13,false,0.444539,-0.301941,0.583374,0.609009,0.877455,-0.436774,-0.125856,-0.045661,0.001963,0.055321
1722050973.3159,2024-07-26 20:29:33.315,14,false,0.444619,-0.301941,0.583313,0.609009,0.875502,-0.436774,-0.12195,-0.045648,0.001975,0.055404
1722050973.3471,2024-07-26 20:29:33.347,15,false,0.444701,-0.302307,0.583252,0.608826,0.883803,-0.427008,-0.130739,-0.045698,0.001985,0.055271
1722050973.3784,2024-07-26 20:29:33.378,16,false,0.4447,-0.302185,0.583252,0.608887,0.883314,-0.427008,-0.14197,-0.045742,0.001994,0.055274
1722050973.4096,2024-07-26 20:29:33.409,17,false,0.444655,-0.302124,0.583191,0.609009,0.874525,-0.433845,-0.12781,-0.045721,0.002026,0.055301
1722050973.4409,2024-07-26 20:29:33.440,18,false,0.444699,-0.301941,0.583252,0.609009,0.886732,-0.439216,-0.132204,-0.045751,0.002019,0.055398
1722050973.4721,2024-07-26 20:29:33.472,19,false,0.444699,-0.301941,0.583252,0.609009,0.886732,-0.439216,-0.132204,-0.045815,0.001951,0.05534
1722050973.5034,2024-07-26 20:29:33.503,20,false,0.44474,-0.30188,0.583252,0.609009,0.894545,-0.435798,-0.132692,-0.045884,0.001927,0.055274
1722050973.5346,2024-07-26 20:29:33.534,21,false,0.444775,-0.301941,0.58313,0.60907,0.879408,-0.440681,-0.125368,-0.045959,0.002015,0.055228
1722050973.5659,2024-07-26 20:29:33.565,22,false,0.444738,-0.302002,0.583191,0.609009,0.879408,-0.440681,-0.125368,-0.045965,0.002009,0.055186
1722050973.5971,2024-07-26 20:29:33.597,23,false,0.444777,-0.302185,0.58313,0.608948,0.880873,-0.425544,-0.142458,-0.045947,0.002003,0.055149
1722050973.6284,2024-07-26 20:29:33.628,24,false,0.445017,-0.302307,0.582947,0.608887,0.885267,-0.445563,-0.131228,-0.045942,0.001913,0.055127
1722050973.6596,2024-07-26 20:29:33.659,25,false,0.44514,-0.30249,0.582886,0.608765,0.885267,-0.445563,-0.131228,-0.04595,0.001941,0.055217
1722050973.6909,2024-07-26 20:29:33.690,26,false,0.44514,-0.302612,0.582886,0.608704,0.886732,-0.437751,-0.141482,-0.045969,0.002016,0.055433
1722050973.7221,2024-07-26 20:29:33.722,27,false,0.445017,-0.302307,0.582947,0.608887,0.886732,-0.437751,-0.141482,-0.045986,0.002083,0.055627
1722050973.7534,2024-07-26 20:29:33.753,28,false,0.445137,-0.302612,0.582825,0.608765,0.875013,-0.434821,-0.134646,-0.045966,0.00207,0.055607
1722050973.7846,2024-07-26 20:29:33.784,29,false,0.445262,-0.302673,0.582825,0.608643,0.881849,-0.434821,-0.128298,-0.045947,0.002022,0.055527
1722050973.8159,2024-07-26 20:29:33.815,30,false,0.445224,-0.302734,0.582886,0.608582,0.881849,-0.434821,-0.128298,-0.045795,0.0021,0.055516
1722050973.8471,2024-07-26 20:29:33.847,31,false,0.445305,-0.302979,0.582825,0.608459,0.89015,-0.427008,-0.12781,-0.045977,0.002024,0.055482
1722050973.8784,2024-07-26 20:29:33.878,0,false,0.445305,-0.302979,0.582825,0.608459,0.883314,-0.424079,-0.122438,-0.045957,0.002042,0.055537
1722050973.9096,2024-07-26 20:29:33.909,1,false,0.445145,-0.302856,0.582947,0.608521,0.883314,-0.424079,-0.122438,-0.045963,0.002057,0.055526
1722050973.9409,2024-07-26 20:29:33.940,2,false,0.445193,-0.302673,0.583069,0.608459,0.887221,-0.431891,-0.129763,-0.045847,0.00201,0.055491
1722050973.9721,2024-07-26 20:29:33.972,3,false,0.445193,-0.302673,0.583069,0.608459,0.889174,-0.438239,-0.140993,-0.04584,0.002005,0.055459
1722050974.0034,2024-07-26 20:29:34.003,4,false,0.445391,-0.302734,0.582886,0.608459,0.889174,-0.438239,-0.140993,-0.045834,0.001999,0.055431
1722050974.0346,2024-07-26 20:29:34.034,5,false,0.445312,-0.302856,0.582947,0.608398,0.885267,-0.447517,-0.132692,-0.045804,0.002031,0.055442
1722050974.0659,2024-07-26 20:29:34.065,6,false,0.445513,-0.302917,0.582825,0.608337,0.884291,-0.43238,-0.134646,-0.045764,0.002048,0.055501
1722050974.0971,2024-07-26 20:29:34.097,7,false,0.445601,-0.303284,0.582886,0.608032,0.884291,-0.43238,-0.134646,-0.045729,0.002063,0.055554
1722050974.1284,2024-07-26 20:29:34.128,8,false,0.445563,-0.303345,0.582947,0.607971,0.884291,-0.43238,-0.134646,-0.045697,0.002052,0.055455
1722050974.1596,2024-07-26 20:29:34.159,9,false,0.445351,-0.303406,0.582886,0.608154,0.885756,-0.42945,-0.128298,-0.045827,0.002042,0.055598
1722050974.1909,2024-07-26 20:29:34.190,10,false,0.445264,-0.303406,0.582825,0.608276,0.892592,-0.428473,-0.134646,-0.045822,0.002155,0.055556
1722050974.2221,2024-07-26 20:29:34.222,11,false,0.445344,-0.303406,0.582764,0.608276,0.892592,-0.428473,-0.134646,-0.045854,0.002086,0.055591
1722050974.2534,2024-07-26 20:29:34.253,12,false,0.445303,-0.303589,0.582764,0.608215,0.89015,-0.437263,-0.12781,-0.045883,0.001987,0.055623
1722050974.2846,2024-07-26 20:29:34.284,13,false,0.445348,-0.303528,0.582825,0.608154,0.884779,-0.429938,-0.125368,-0.045836,0.002106,0.055664
1722050974.3159,2024-07-26 20:29:34.315,14,false,0.445421,-0.303528,0.582642,0.608276,0.884779,-0.429938,-0.125368,-0.045793,0.002213,0.055701
1722050974.3471,2024-07-26 20:29:34.347,15,false,0.445414,-0.30365,0.58252,0.608337,0.889662,-0.437751,-0.139528,-0.045767,0.002224,0.055722
1722050974.3784,2024-07-26 20:29:34.378,16,false,0.445535,-0.303711,0.582458,0.608276,0.886732,-0.428473,-0.14197,-0.045671,0.002196,0.055691
1722050974.4096,2024-07-26 20:29:34.409,17,false,0.44566,-0.303772,0.582458,0.608154,0.886732,-0.428473,-0.14197,-0.045571,0.00227,0.055652
1722050974.4409,2024-07-26 20:29:34.440,18,false,0.44583,-0.30365,0.58252,0.608032,0.882338,-0.417731,-0.129274,-0.045507,0.002189,0.055617
1722050974.4721,2024-07-26 20:29:34.472,19,false,0.445789,-0.303589,0.58252,0.608093,0.890639,-0.433845,-0.138552,-0.045558,0.002044,0.055597
1722050974.5034,2024-07-26 20:29:34.503,20,false,0.44566,-0.303772,0.582458,0.608154,0.889662,-0.437751,-0.139528,-0.045495,0.002071,0.055567
1722050974.5346,2024-07-26 20:29:34.534,21,false,0.445754,-0.303406,0.582642,0.608093,0.878431,-0.440681,-0.140017,-0.045413,0.002035,0.055541
1722050974.5659,2024-07-26 20:29:34.565,22,false,0.445885,-0.303345,0.582764,0.60791,0.889174,-0.443122,-0.132204,-0.045413,0.002088,0.055468
1722050974.5971,2024-07-26 20:29:34.597,23,false,0.445885,-0.303345,0.582764,0.60791,0.887221,-0.433845,-0.132204,-0.045461,0.002148,0.055414
1722050974.6284,2024-07-26 20:29:34.628,24,false,0.445795,-0.303345,0.582642,0.608093,0.887221,-0.433845,-0.132204,-0.045505,0.002201,0.055366
1722050974.6596,2024-07-26 20:29:34.659,25,false,0.445712,-0.303345,0.582642,0.608154,0.888197,-0.426032,-0.134646,-0.045459,0.002079,0.055408
1722050974.6909,2024-07-26 20:29:34.690,26,false,0.445715,-0.303223,0.582703,0.608154,0.884291,-0.428473,-0.12781,-0.045515,0.002005,0.055409
1722050974.7221,2024-07-26 20:29:34.722,27,false,0.445559,-0.303223,0.582886,0.608093,0.884291,-0.428473,-0.12781,-0.045566,0.001939,0.05541
1722050974.7534,2024-07-26 20:29:34.753,28,false,0.445392,-0.303223,0.582886,0.608215,0.881849,-0.439216,-0.130739,-0.045624,0.001977,0.055399
1722050974.7846,2024-07-26 20:29:34.784,29,false,0.445351,-0.303284,0.582886,0.608215,0.896986,-0.437751,-0.135134,-0.045639,0.00206,0.055401
1722050974.8159,2024-07-26 20:29:34.815,30,false,0.445309,-0.303223,0.582886,0.608276,0.896986,-0.437751,-0.135134,-0.045653,0.002135,0.055403
1722050974.8471,2024-07-26 20:29:34.847,31,false,0.445153,-0.303223,0.583069,0.608215,0.883803,-0.439216,-0.126345,-0.045702,0.002031,0.055356
1722050974.8784,2024-07-26 20:29:34.878,0,false,0.445031,-0.303162,0.58313,0.608276,0.879896,-0.428962,-0.138552,-0.045722,0.002036,0.055314
1722050974.9096,2024-07-26 20:29:34.909,1,false,0.444947,-0.302917,0.58313,0.608459,0.884291,-0.43238,-0.137087,-0.045703,0.00204,0.055312
1722050974.9409,2024-07-26 20:29:34.940,2,false,0.444696,-0.302795,0.58313,0.608704,0.882826,-0.437263,-0.140505,-0.045674,0.002031,0.055201
1722050974.9721,2024-07-26 20:29:34.972,3,false,0.444866,-0.302673,0.583191,0.608582,0.893568,-0.429938,-0.123415,-0.045794,0.001974,0.055211
1722050975.0034,2024-07-26 20:29:35.003,4,false,0.44474,-0.302612,0.583191,0.608704,0.893568,-0.429938,-0.123415,-0.045987,0.001887,0.055244
1722050975.0346,2024-07-26 20:29:35.034,5,false,0.444782,-0.302551,0.583191,0.608704,0.875502,-0.439216,-0.134157,-0.045966,0.001796,0.055323
1722050975.0659,2024-07-26 20:29:35.065,6,false,0.444781,-0.302429,0.583191,0.608765,0.888197,-0.448981,-0.130739,-0.04585,0.001775,0.055308
1722050975.0971,2024-07-26 20:29:35.097,7,false,0.444774,-0.302429,0.583069,0.608887,0.888197,-0.448981,-0.130739,-0.045745,0.001756,0.055295
1722050975.1284,2024-07-26 20:29:35.128,8,false,0.444934,-0.302429,0.582947,0.608887,0.881361,-0.44654,-0.129763,-0.045675,0.001776,0.055308
1722050975.1596,2024-07-26 20:29:35.159,9,false,0.444889,-0.30249,0.582886,0.608948,0.877943,-0.434333,-0.140993,-0.045746,0.001818,0.055294
1722050975.1909,2024-07-26 20:29:35.190,10,false,0.444927,-0.302429,0.582825,0.609009,0.877943,-0.434333,-0.140993,-0.045713,0.001893,0.055222
1722050975.2221,2024-07-26 20:29:35.222,11,false,0.445132,-0.302246,0.582764,0.609009,0.888197,-0.450935,-0.134646,-0.045719,0.001838,0.055242
1722050975.2534,2024-07-26 20:29:35.253,12,false,0.444889,-0.30249,0.582886,0.608948,0.888197,-0.450935,-0.134646,-0.045725,0.001788,0.055259
1722050975.2846,2024-07-26 20:29:35.284,13,false,0.445055,-0.302124,0.582886,0.609009,0.87306,-0.440681,-0.130251,-0.045742,0.00178,0.055141
1722050975.3159,2024-07-26 20:29:35.315,14,false,0.445057,-0.30188,0.582947,0.60907,0.873549,-0.436286,-0.133181,-0.045746,0.0017,0.055145
1722050975.3471,2024-07-26 20:29:35.347,15,false,0.44497,-0.302002,0.582886,0.609131,0.873549,-0.436286,-0.133181,-0.045822,0.00164,0.05516
1722050975.3784,2024-07-26 20:29:35.378,16,false,0.445008,-0.301941,0.582825,0.609192,0.885267,-0.441169,-0.137087,-0.045793,0.001708,0.055174
1722050975.4096,2024-07-26 20:29:35.409,17,false,0.444966,-0.30188,0.582825,0.609253,0.885267,-0.435309,-0.142947,-0.045804,0.001683,0.055211
1722050975.4409,2024-07-26 20:29:35.440,18,false,0.444719,-0.30188,0.582886,0.609375,0.885267,-0.435309,-0.142947,-0.045813,0.001662,0.055244
1722050975.4721,2024-07-26 20:29:35.472,19,false,0.444638,-0.301758,0.582947,0.609436,0.883314,-0.427985,-0.125368,-0.045736,0.001691,0.055262
1722050975.5034,2024-07-26 20:29:35.503,20,false,0.444555,-0.30188,0.582947,0.609436,0.880873,-0.438727,-0.132692,-0.045704,0.00168,0.055253
1722050975.5346,2024-07-26 20:29:35.534,21,false,0.444471,-0.301758,0.582947,0.609558,0.880873,-0.438727,-0.132692,-0.045675,0.001671,0.055246
1722050975.5659,2024-07-26 20:29:35.565,22,false,0.444432,-0.301697,0.583008,0.609558,0.892103,-0.431403,-0.126833,-0.04577,0.001724,0.0553
1722050975.5971,2024-07-26 20:29:35.597,23,false,0.444474,-0.301636,0.583008,0.609558,0.866224,-0.455817,-0.13904,-0.045795,0.001624,0.055287
1722050975.6284,2024-07-26 20:29:35.628,24,false,0.444359,-0.301697,0.583191,0.609436,0.866224,-0.455817,-0.13904,-0.045745,0.001694,0.055374
1722050975.6596,2024-07-26 20:29:35.659,25,false,0.444321,-0.301636,0.583252,0.609436,0.866224,-0.455817,-0.13904,-0.045699,0.001757,0.055452
1722050975.6909,2024-07-26 20:29:35.690,26,false,0.444191,-0.301575,0.583191,0.609619,0.880385,-0.438727,-0.138064,-0.045683,0.001849,0.0554
1722050975.7221,2024-07-26 20:29:35.722,27,false,0.443985,-0.301636,0.583252,0.60968,0.896498,-0.439216,-0.126345,-0.045777,0.00186,0.055463
1722050975.7534,2024-07-26 20:29:35.753,28,false,0.444076,-0.301514,0.583374,0.609558,0.896498,-0.439216,-0.126345,-0.045863,0.001869,0.05552
1722050975.7846,2024-07-26 20:29:35.784,29,false,0.444156,-0.301514,0.583313,0.609558,0.868666,-0.433356,-0.126833,-0.045891,0.00189,0.055461
1722050975.8159,2024-07-26 20:29:35.815,30,false,0.444354,-0.301453,0.58313,0.609619,0.885267,-0.448493,-0.131716,-0.045806,0.001957,0.055433
1722050975.8471,2024-07-26 20:29:35.847,31,false,0.444311,-0.30127,0.58313,0.609741,0.885267,-0.448493,-0.131716,-0.04573,0.002018,0.055407
1722050975.8784,2024-07-26 20:29:35.878,0,false,0.444272,-0.301208,0.583191,0.609741,0.876967,-0.427497,-0.129274,-0.045857,0.001914,0.055286
1722050975.9096,2024-07-26 20:29:35.909,1,false,0.444478,-0.30127,0.58313,0.609619,0.875013,-0.437751,-0.135622,-0.045959,0.001869,0.055141
1722050975.9409,2024-07-26 20:29:35.940,2,false,0.444564,-0.301147,0.583191,0.609558,0.875013,-0.437751,-0.135622,-0.045904,0.001841,0.055291
1722050975.9721,2024-07-26 20:29:35.972,3,false,0.444602,-0.301086,0.58313,0.609619,0.885267,-0.441169,-0.135134,-0.046001,0.001827,0.055255
1722050976.0034,2024-07-26 20:29:36.003,4,false,0.444606,-0.301086,0.583191,0.609558,0.880385,-0.448493,-0.126833,-0.046015,0.001791,0.055321
1722050976.0346,2024-07-26 20:29:36.034,5,false,0.444564,-0.301147,0.583191,0.609558,0.876967,-0.427497,-0.129274,-0.046016,0.001771,0.055331
1722050976.0659,2024-07-26 20:29:36.065,6,false,0.444606,-0.301086,0.583191,0.609558,0.879408,-0.437751,-0.139528,-0.046016,0.001752,0.05534
1722050976.0971,2024-07-26 20:29:36.097,7,false,0.444687,-0.301208,0.58313,0.609497,0.879896,-0.438239,-0.132204,-0.045956,0.001895,0.055287
1722050976.1284,2024-07-26 20:29:36.128,8,false,0.44452,-0.301331,0.58313,0.609558,0.881849,-0.438239,-0.145388,-0.04595,0.001913,0.055288
1722050976.1596,2024-07-26 20:29:36.159,9,false,0.444516,-0.301208,0.583069,0.60968,0.881849,-0.438239,-0.145388,-0.04575,0.001929,0.05535
1722050976.1909,2024-07-26 20:29:36.190,10,false,0.444515,-0.301086,0.583069,0.609741,0.879896,-0.454353,-0.145388,-0.045789,0.002005,0.055284
1722050976.2221,2024-07-26 20:29:36.222,11,false,0.444515,-0.301086,0.583069,0.609741,0.87892,-0.452888,-0.135622,-0.045825,0.002073,0.055249
1722050976.2534,2024-07-26 20:29:36.253,12,false,0.444515,-0.301086,0.583069,0.609741,0.87892,-0.452888,-0.135622,-0.04582,0.002061,0.055327
1722050976.2846,2024-07-26 20:29:36.284,13,false,0.444313,-0.301147,0.583191,0.609741,0.884779,-0.444587,-0.131716,-0.045938,0.001989,0.055336
1722050976.3159,2024-07-26 20:29:36.315,14,false,0.444351,-0.301086,0.58313,0.609802,0.887709,-0.442145,-0.135622,-0.045934,0.001961,0.055272
1722050976.3471,2024-07-26 20:29:36.347,15,false,0.44439,-0.301147,0.583069,0.609802,0.887709,-0.442145,-0.135622,-0.045918,0.001924,0.055225
1722050976.3784,2024-07-26 20:29:36.378,16,false,0.444353,-0.301331,0.58313,0.60968,0.875013,-0.434821,-0.128786,-0.045941,0.001939,0.055111
1722050976.4096,2024-07-26 20:29:36.409,17,false,0.444021,-0.301697,0.58313,0.609741,0.883803,-0.438239,-0.129274,-0.04601,0.00194,0.055142
1722050976.4409,2024-07-26 20:29:36.440,18,false,0.444052,-0.301758,0.582947,0.609863,0.872084,-0.427497,-0.14197,-0.045999,0.001954,0.055157
1722050976.4721,2024-07-26 20:29:36.472,19,false,0.444131,-0.301636,0.582886,0.609924,0.879896,-0.445075,-0.130251,-0.045952,0.001929,0.055135
1722050976.5034,2024-07-26 20:29:36.503,20,false,0.444127,-0.301636,0.582825,0.609985,0.879896,-0.44361,-0.136599,-0.045947,0.001907,0.055115
1722050976.5346,2024-07-26 20:29:36.534,21,false,0.444169,-0.301575,0.582825,0.609985,0.879896,-0.44361,-0.136599,-0.045942,0.001887,0.055096
1722050976.5659,2024-07-26 20:29:36.565,22,false,0.44429,-0.301514,0.582764,0.609985,0.883803,-0.436774,-0.131228,-0.045889,0.001955,0.055104
1722050976.5971,2024-07-26 20:29:36.597,23,false,0.444371,-0.301636,0.582703,0.609924,0.882338,-0.449958,-0.132204,-0.045951,0.001845,0.055087
1722050976.6284,2024-07-26 20:29:36.628,24,false,0.444375,-0.301636,0.582764,0.609863,0.882338,-0.449958,-0.132204,-0.045934,0.00188,0.055157
1722050976.6596,2024-07-26 20:29:36.659,25,false,0.444494,-0.301697,0.582642,0.609863,0.866224,-0.442634,-0.129763,-0.045894,0.001985,0.055135
1722050976.6909,2024-07-26 20:29:36.690,26,false,0.444494,-0.301697,0.582642,0.609863,0.884291,-0.434821,-0.132204,-0.046004,0.001945,0.055249
1722050976.7221,2024-07-26 20:29:36.722,27,false,0.444497,-0.301697,0.582703,0.609802,0.884291,-0.434821,-0.132204,-0.046103,0.001909,0.055351
1722050976.7534,2024-07-26 20:29:36.753,28,false,0.44462,-0.301758,0.582642,0.609741,0.898451,-0.436286,-0.134646,-0.046046,0.001767,0.05531
1722050976.7846,2024-07-26 20:29:36.784,29,false,0.444414,-0.301697,0.582703,0.609863,0.879408,-0.445563,-0.136599,-0.046141,0.001786,0.05526
1722050976.8159,2024-07-26 20:29:36.815,30,false,0.444497,-0.301697,0.582703,0.609802,0.866224,-0.442634,-0.129763,-0.046215,0.001815,0.055117
1722050976.8471,2024-07-26 20:29:36.847,31,false,0.444456,-0.301758,0.582703,0.609802,0.883803,-0.425544,-0.151736,-0.046281,0.001841,0.054989
1722050976.8784,2024-07-26 20:29:36.878,0,false,0.444335,-0.301941,0.582764,0.609741,0.888197,-0.445075,-0.141482,-0.046243,0.001864,0.054959
1722050976.9096,2024-07-26 20:29:36.909,1,false,0.444293,-0.30188,0.582764,0.609802,0.882338,-0.428473,-0.134157,-0.046123,0.001837,0.054919
1722050976.9409,2024-07-26 20:29:36.940,2,false,0.444209,-0.30188,0.582764,0.609863,0.882338,-0.428473,-0.134157,-0.046015,0.001812,0.054884
1722050976.9721,2024-07-26 20:29:36.972,3,false,0.444087,-0.301819,0.582825,0.609924,0.876478,-0.448005,-0.13904,-0.045955,0.001826,0.054974
1722050977.0034,2024-07-26 20:29:37.003,4,false,0.444048,-0.301758,0.582886,0.609924,0.874525,-0.454841,-0.138552,-0.045949,0.001936,0.055068
1722050977.0346,2024-07-26 20:29:37.034,5,false,0.444007,-0.301819,0.582886,0.609924,0.874525,-0.454841,-0.138552,-0.045944,0.002036,0.055152
1722050977.0659,2024-07-26 20:29:37.065,6,false,0.444091,-0.301819,0.582886,0.609863,0.877943,-0.444587,-0.133669,-0.045964,0.002003,0.055167
1722050977.0971,2024-07-26 20:29:37.097,7,false,0.444052,-0.301758,0.582947,0.609863,0.87892,-0.437263,-0.134646,-0.045958,0.001912,0.055119
1722050977.1284,2024-07-26 20:29:37.128,8,false,0.444212,-0.301758,0.582825,0.609863,0.87892,-0.437263,-0.134646,-0.045854,0.001868,0.055137
1722050977.1596,2024-07-26 20:29:37.159,9,false,0.444096,-0.302063,0.582947,0.60968,0.87892,-0.437263,-0.134646,-0.045761,0.001827,0.055153
1722050977.1909,2024-07-26 20:29:37.190,10,false,0.443966,-0.302002,0.582886,0.609863,0.879408,-0.44654,-0.137575,-0.045689,0.00184,0.055216
1722050977.2221,2024-07-26 20:29:37.222,11,false,0.443878,-0.302002,0.582825,0.609985,0.881849,-0.444099,-0.133181,-0.045857,0.00179,0.055212
1722050977.2534,2024-07-26 20:29:37.253,12,false,0.443797,-0.30188,0.582886,0.610046,0.881849,-0.444099,-0.133181,-0.046007,0.001746,0.055209
1722050977.2846,2024-07-26 20:29:37.284,13,false,0.443839,-0.301819,0.582886,0.610046,0.869642,-0.440192,-0.13611,-0.046021,0.001778,0.055242
1722050977.3159,2024-07-26 20:29:37.315,14,false,0.444007,-0.301819,0.582886,0.609924,0.884779,-0.453376,-0.128298,-0.045948,0.001772,0.055309
1722050977.3471,2024-07-26 20:29:37.347,15,false,0.444292,-0.301758,0.582764,0.609863,0.884779,-0.453376,-0.128298,-0.045943,0.001826,0.055308
1722050977.3784,2024-07-26 20:29:37.378,16,false,0.444247,-0.301819,0.582703,0.609924,0.87892,-0.428962,-0.133181,-0.045926,0.001863,0.055319
1722050977.4096,2024-07-26 20:29:37.409,17,false,0.44416,-0.301941,0.582642,0.609985,0.882826,-0.436286,-0.138552,-0.045863,0.001909,0.055439
1722050977.4409,2024-07-26 20:29:37.440,18,false,0.444161,-0.302063,0.582642,0.609924,0.882826,-0.436286,-0.138552,-0.045854,0.001974,0.055437
1722050977.4721,2024-07-26 20:29:37.472,19,false,0.444042,-0.302002,0.582764,0.609924,0.883314,-0.433845,-0.12195,-0.045859,0.001924,0.055424
1722050977.5034,2024-07-26 20:29:37.503,20,false,0.444078,-0.302185,0.582642,0.609924,0.885267,-0.443122,-0.144411,-0.045875,0.002049,0.055509
1722050977.5346,2024-07-26 20:29:37.534,21,false,0.444074,-0.302185,0.582581,0.609985,0.885267,-0.443122,-0.144411,-0.045926,0.002039,0.0555
1722050977.5659,2024-07-26 20:29:37.565,22,false,0.444042,-0.302002,0.582764,0.609924,0.876478,-0.445075,-0.12781,-0.045936,0.00203,0.055468
1722050977.5971,2024-07-26 20:29:37.597,23,false,0.443908,-0.301819,0.582642,0.610229,0.876478,-0.445075,-0.12781,-0.045944,0.001962,0.0555
1722050977.6284,2024-07-26 20:29:37.628,24,false,0.443825,-0.301941,0.582642,0.610229,0.881849,-0.442145,-0.134157,-0.04594,0.001875,0.05554
1722050977.6596,2024-07-26 20:29:37.659,25,false,0.443664,-0.301941,0.582764,0.610229,0.874037,-0.42945,-0.127321,-0.045936,0.00192,0.055516
1722050977.6909,2024-07-26 20:29:37.690,26,false,0.443751,-0.301819,0.582825,0.610168,0.874037,-0.42945,-0.127321,-0.045932,0.00196,0.055495
1722050977.7221,2024-07-26 20:29:37.722,27,false,0.443709,-0.301758,0.582825,0.610229,0.872572,-0.436286,-0.11902,-0.045953,0.001996,0.055389
1722050977.7534,2024-07-26 20:29:37.753,28,false,0.443461,-0.301758,0.582886,0.610352,0.87013,-0.438727,-0.144411,-0.045997,0.002016,0.055307
1722050977.7846,2024-07-26 20:29:37.784,29,false,0.443376,-0.301636,0.582886,0.610474,0.87013,-0.438727,-0.144411,-0.046036,0.002034,0.055233
1722050977.8159,2024-07-26 20:29:37.815,30,false,0.443369,-0.301758,0.582764,0.610535,0.883803,-0.441657,-0.135134,-0.046034,0.001965,0.055191
1722050977.8471,2024-07-26 20:29:37.847,31,false,0.443418,-0.301697,0.582886,0.610413,0.880873,-0.442634,-0.142947,-0.04596,0.001939,0.055202
1722050977.8784,2024-07-26 20:29:37.878,0,false,0.443502,-0.301697,0.582886,0.610352,0.880873,-0.442634,-0.142947,-0.045966,0.001941,0.055162
1722050977.9096,2024-07-26 20:29:37.909,1,false,0.44367,-0.301697,0.582886,0.610229,0.879896,-0.444587,-0.129763,-0.04591,0.001881,0.055225
1722050977.9409,2024-07-26 20:29:37.940,2,false,0.443966,-0.302002,0.582886,0.609863,0.886732,-0.428473,-0.140017,-0.045958,0.001949,0.05533
1722050977.9721,2024-07-26 20:29:37.972,3,false,0.443885,-0.30188,0.582947,0.609924,0.877943,-0.428962,-0.133181,-0.046001,0.001974,0.055315
1722050978.0034,2024-07-26 20:29:38.003,4,false,0.443681,-0.301697,0.583069,0.610046,0.868177,-0.456794,-0.13904,-0.046003,0.001972,0.055362
1722050978.0346,2024-07-26 20:29:38.034,5,false,0.44352,-0.301575,0.583191,0.610107,0.875502,-0.435798,-0.118532,-0.046017,0.001946,0.055319
1722050978.0659,2024-07-26 20:29:38.065,6,false,0.443478,-0.301636,0.583191,0.610107,0.875502,-0.435798,-0.118532,-0.04603,0.001922,0.05528
1722050978.0971,2024-07-26 20:29:38.097,7,false,0.443562,-0.301636,0.583191,0.610046,0.878431,-0.447028,-0.141482,-0.046041,0.001998,0.055246
1722050978.1284,2024-07-26 20:29:38.128,8,false,0.443478,-0.301636,0.583191,0.610107,0.884779,-0.442145,-0.148318,-0.04599,0.002067,0.055312
1722050978.1596,2024-07-26 20:29:38.159,9,false,0.443475,-0.301636,0.58313,0.610168,0.884779,-0.442145,-0.148318,-0.045969,0.001934,0.055384
1722050978.1909,2024-07-26 20:29:38.190,10,false,0.443472,-0.301758,0.583069,0.610168,0.883803,-0.455329,-0.131716,-0.045913,0.001874,0.055302
1722050978.2221,2024-07-26 20:29:38.222,11,false,0.443472,-0.301758,0.583069,0.610168,0.869642,-0.441657,-0.129274,-0.04579,0.001834,0.055265
1722050978.2534,2024-07-26 20:29:38.253,12,false,0.443478,-0.301636,0.583191,0.610107,0.869642,-0.441657,-0.129274,-0.045678,0.001797,0.055232
1722050978.2846,2024-07-26 20:29:38.284,13,false,0.443391,-0.301636,0.58313,0.610229,0.874525,-0.436286,-0.128298,-0.045603,0.001763,0.055263
1722050978.3159,2024-07-26 20:29:38.315,14,false,0.443556,-0.301758,0.583069,0.610107,0.881361,-0.444587,-0.129763,-0.045523,0.001685,0.055279
1722050978.3471,2024-07-26 20:29:38.347,15,false,0.443478,-0.301636,0.583191,0.610107,0.883803,-0.455329,-0.131716,-0.045463,0.001663,0.055342
1722050978.3784,2024-07-26 20:29:38.378,16,false,0.443469,-0.30188,0.583008,0.610168,0.882826,-0.438239,-0.131716,-0.045409,0.001643,0.055398
1722050978.4096,2024-07-26 20:29:38.409,17,false,0.443385,-0.30188,0.583008,0.610229,0.891615,-0.429938,-0.127321,-0.045421,0.00165,0.055327
1722050978.4409,2024-07-26 20:29:38.440,18,false,0.443351,-0.301941,0.58313,0.610107,0.877943,-0.44361,-0.13904,-0.045469,0.001631,0.055264
1722050978.4721,2024-07-26 20:29:38.472,19,false,0.443389,-0.30188,0.583069,0.610168,0.877943,-0.44361,-0.13904,-0.045512,0.001615,0.055206
1722050978.5034,2024-07-26 20:29:38.503,20,false,0.443269,-0.301697,0.583191,0.610229,0.87892,-0.447517,-0.1449,-0.045502,0.001648,0.055289
1722050978.5346,2024-07-26 20:29:38.534,21,false,0.443024,-0.301697,0.583313,0.610291,0.887221,-0.459724,-0.144411,-0.045542,0.001654,0.055375
1722050978.5659,2024-07-26 20:29:38.565,22,false,0.443066,-0.301636,0.583313,0.610291,0.887221,-0.459724,-0.144411,-0.045565,0.001709,0.055258
1722050978.5971,2024-07-26 20:29:38.597,23,false,0.442982,-0.301636,0.583313,0.610352,0.876967,-0.444099,-0.136599,-0.045513,0.001733,0.055213
1722050978.6284,2024-07-26 20:29:38.628,24,false,0.442895,-0.301758,0.583252,0.610413,0.87892,-0.442145,-0.142947,-0.045649,0.001792,0.055185
1722050978.6596,2024-07-26 20:29:38.659,25,false,0.443143,-0.301758,0.583191,0.610291,0.87892,-0.442145,-0.142947,-0.045772,0.001845,0.05516
1722050978.6909,2024-07-26 20:29:38.690,26,false,0.443346,-0.301819,0.583069,0.610229,0.881849,-0.444587,-0.129274,-0.045846,0.00177,0.055137
1722050978.7221,2024-07-26 20:29:38.722,27,false,0.443466,-0.302002,0.582947,0.610168,0.885267,-0.437751,-0.130739,-0.045851,0.001739,0.055177
1722050978.7534,2024-07-26 20:29:38.753,28,false,0.443543,-0.302002,0.582825,0.610229,0.883803,-0.441169,-0.140505,-0.04588,0.001675,0.055153
1722050978.7846,2024-07-26 20:29:38.784,29,false,0.443457,-0.301758,0.582825,0.610413,0.879408,-0.446052,-0.131716,-0.045797,0.001605,0.055119
1722050978.8159,2024-07-26 20:29:38.815,30,false,0.443537,-0.301758,0.582764,0.610413,0.877943,-0.434333,-0.130739,-0.045807,0.00153,0.055076
1722050978.8471,2024-07-26 20:29:38.847,31,false,0.443748,-0.301819,0.582764,0.610229,0.877943,-0.434333,-0.130739,-0.045816,0.001463,0.055037
1722050978.8784,2024-07-26 20:29:38.878,0,false,0.443754,-0.301697,0.582886,0.610168,0.893568,-0.433845,-0.13611,-0.045788,0.001524,0.054978
1722050978.9096,2024-07-26 20:29:38.909,1,false,0.443797,-0.301758,0.582886,0.610107,0.880385,-0.442634,-0.137575,-0.045823,0.001482,0.05501
1722050978.9409,2024-07-26 20:29:38.940,2,false,0.443916,-0.301941,0.582764,0.610046,0.880385,-0.442634,-0.137575,-0.045855,0.001443,0.055039
1722050978.9721,2024-07-26 20:29:38.972,3,false,0.443875,-0.302002,0.582764,0.610046,0.884291,-0.437751,-0.140505,-0.045848,0.001519,0.055016
1722050979.0034,2024-07-26 20:29:39.003,4,false,0.443916,-0.301941,0.582764,0.610046,0.876478,-0.436286,-0.131716,-0.045743,0.001648,0.055056
1722050979.0346,2024-07-26 20:29:39.034,5,false,0.443962,-0.302002,0.582825,0.609924,0.876478,-0.436286,-0.131716,-0.045856,0.001593,0.05502
1722050979.0659,2024-07-26 20:29:39.065,6,false,0.443841,-0.302063,0.582886,0.609924,0.884779,-0.443122,-0.135134,-0.045873,0.001592,0.055096
1722050979.0971,2024-07-26 20:29:39.097,7,false,0.443844,-0.302063,0.582947,0.609863,0.887709,-0.433356,-0.13611,-0.046034,0.001543,0.055178
1722050979.1284,2024-07-26 20:29:39.128,8,false,0.443962,-0.302002,0.582825,0.609924,0.884291,-0.437751,-0.140505,-0.04602,0.001498,0.055214
1722050979.1596,2024-07-26 20:29:39.159,9,false,0.443887,-0.302124,0.582947,0.609802,0.87306,-0.439216,-0.14197,-0.046057,0.001544,0.05521
1722050979.1909,2024-07-26 20:29:39.190,10,false,0.443841,-0.302185,0.582886,0.609863,0.882826,-0.439704,-0.134646,-0.046102,0.001499,0.055219
1722050979.2221,2024-07-26 20:29:39.222,11,false,0.443797,-0.302368,0.582825,0.609863,0.887221,-0.441169,-0.129274,-0.046021,0.001642,0.055252
1722050979.2534,2024-07-26 20:29:39.253,12,false,0.443752,-0.302429,0.582764,0.609924,0.887221,-0.441169,-0.129274,-0.045899,0.001734,0.055268
1722050979.2846,2024-07-26 20:29:39.284,13,false,0.443713,-0.302368,0.582825,0.609924,0.880873,-0.457282,-0.138064,-0.045911,0.001842,0.05532
1722050979.3159,2024-07-26 20:29:39.315,14,false,0.443629,-0.302368,0.582825,0.609985,0.87306,-0.44361,-0.138064,-0.04591,0.001767,0.055379
1722050979.3471,2024-07-26 20:29:39.347,15,false,0.443583,-0.302307,0.582764,0.610107,0.87306,-0.44361,-0.138064,-0.045921,0.00181,0.055469
1722050979.3784,2024-07-26 20:29:39.378,16,false,0.443507,-0.302429,0.582886,0.609985,0.882338,-0.443122,-0.128298,-0.045907,0.001849,0.055501
1722050979.4096,2024-07-26 20:29:39.409,17,false,0.443672,-0.302551,0.582825,0.609863,0.881849,-0.442634,-0.143435,-0.045869,0.001774,0.055505
1722050979.4409,2024-07-26 20:29:39.440,18,false,0.44363,-0.302612,0.582825,0.609863,0.881849,-0.442634,-0.143435,-0.045836,0.001707,0.055509
1722050979.4721,2024-07-26 20:29:39.472,19,false,0.443758,-0.302917,0.582825,0.609619,0.881849,-0.442634,-0.143435,-0.045891,0.001792,0.055414
1722050979.5034,2024-07-26 20:29:39.503,20,false,0.44372,-0.302979,0.582886,0.609558,0.886244,-0.439704,-0.125368,-0.045879,0.001747,0.055452
1722050979.5346,2024-07-26 20:29:39.534,21,false,0.443713,-0.303101,0.582764,0.609619,0.876967,-0.434333,-0.13611,-0.045881,0.001682,0.0554
1722050979.5659,2024-07-26 20:29:39.565,22,false,0.443709,-0.303101,0.582703,0.60968,0.876967,-0.434333,-0.13611,-0.045883,0.001624,0.055353
1722050979.5971,2024-07-26 20:29:39.597,23,false,0.44366,-0.303162,0.582581,0.609802,0.878431,-0.445075,-0.140017,-0.045934,0.001718,0.055421
1722050979.6284,2024-07-26 20:29:39.628,24,false,0.443622,-0.303345,0.582642,0.60968,0.878431,-0.449958,-0.12488,-0.046052,0.001656,0.055323
1722050979.6596,2024-07-26 20:29:39.659,25,false,0.443584,-0.303284,0.582703,0.60968,0.878431,-0.449958,-0.12488,-0.046049,0.001625,0.055272
1722050979.6909,2024-07-26 20:29:39.690,26,false,0.443626,-0.303223,0.582703,0.60968,0.869154,-0.438239,-0.130739,-0.046059,0.001548,0.055214
1722050979.7221,2024-07-26 20:29:39.722,27,false,0.443626,-0.303223,0.582703,0.60968,0.874525,-0.44654,-0.135134,-0.046067,0.001625,0.055246
1722050979.7534,2024-07-26 20:29:39.753,28,false,0.443671,-0.303162,0.582764,0.609619,0.874525,-0.44654,-0.135134,-0.046075,0.001694,0.055276
1722050979.7846,2024-07-26 20:29:39.784,29,false,0.443752,-0.303284,0.582703,0.609558,0.89015,-0.440192,-0.128786,-0.046045,0.001684,0.05523
1722050979.8159,2024-07-26 20:29:39.815,30,false,0.443752,-0.303406,0.582703,0.609497,0.885756,-0.444099,-0.129763,-0.046018,0.001735,0.055188
1722050979.8471,2024-07-26 20:29:39.847,31,false,0.443909,-0.30365,0.58252,0.609436,0.885756,-0.444099,-0.129763,-0.045994,0.001781,0.05515
1722050979.8784,2024-07-26 20:29:39.878,0,false,0.443752,-0.303284,0.582703,0.609558,0.887221,-0.435309,-0.129274,-0.045997,0.001762,0.055092
1722050979.9096,2024-07-26 20:29:39.909,1,false,0.443993,-0.30365,0.58252,0.609375,0.887221,-0.435309,-0.129274,-0.045999,0.001744,0.055039
1722050979.9409,2024-07-26 20:29:39.940,2,false,0.443955,-0.303833,0.582581,0.609253,0.887221,-0.431403,-0.139528,-0.045904,0.001826,0.055138
1722050979.9721,2024-07-26 20:29:39.972,3,false,0.443921,-0.303894,0.582703,0.609131,0.880873,-0.430915,-0.115114,-0.045757,0.001839,0.055105
1722050980.0034,2024-07-26 20:29:40.003,4,false,0.444088,-0.303894,0.582703,0.609009,0.880873,-0.430915,-0.115114,-0.045734,0.001801,0.055125
1722050980.0346,2024-07-26 20:29:40.034,5,false,0.444043,-0.303833,0.582642,0.609131,0.879896,-0.439704,-0.132692,-0.045849,0.001853,0.055106
1722050980.0659,2024-07-26 20:29:40.065,6,false,0.444043,-0.303833,0.582642,0.609131,0.871595,-0.439704,-0.142947,-0.045768,0.001827,0.055137
1722050980.0971,2024-07-26 20:29:40.097,7,false,0.444081,-0.303772,0.582581,0.609192,0.871595,-0.439704,-0.142947,-0.045696,0.001803,0.055165
1722050980.1284,2024-07-26 20:29:40.128,8,false,0.443882,-0.303589,0.582764,0.609253,0.881361,-0.436286,-0.130251,-0.045765,0.001757,0.055228
1722050980.1596,2024-07-26 20:29:40.159,9,false,0.443878,-0.303589,0.582703,0.609314,0.872572,-0.425544,-0.125368,-0.045742,0.001666,0.055296
1722050980.1909,2024-07-26 20:29:40.190,10,false,0.443882,-0.303711,0.582764,0.609192,0.872572,-0.425544,-0.125368,-0.045721,0.001585,0.055357
1722050980.2221,2024-07-26 20:29:40.222,11,false,0.443962,-0.303711,0.582703,0.609192,0.879896,-0.431403,-0.138552,-0.045739,0.001659,0.055351
1722050980.2534,2024-07-26 20:29:40.253,12,false,0.444053,-0.303833,0.582825,0.608948,0.87599,-0.438727,-0.125368,-0.045657,0.001639,0.055261
1722050980.2846,2024-07-26 20:29:40.284,13,false,0.444046,-0.303955,0.582703,0.609009,0.886244,-0.445563,-0.144411,-0.045755,0.001634,0.055216
1722050980.3159,2024-07-26 20:29:40.315,14,false,0.444005,-0.304138,0.582703,0.608948,0.888197,-0.434333,-0.133669,-0.045659,0.001605,0.055114
1722050980.3471,2024-07-26 20:29:40.347,15,false,0.443921,-0.304138,0.582703,0.609009,0.890639,-0.434333,-0.127321,-0.045708,0.001652,0.055132
1722050980.3784,2024-07-26 20:29:40.378,16,false,0.443966,-0.304077,0.582764,0.608948,0.890639,-0.434333,-0.127321,-0.045727,0.001755,0.055112
1722050980.4096,2024-07-26 20:29:40.409,17,false,0.444092,-0.304016,0.582764,0.608887,0.877455,-0.439216,-0.135622,-0.045634,0.0018,0.055229
1722050980.4409,2024-07-26 20:29:40.440,18,false,0.444054,-0.303955,0.582825,0.608887,0.891127,-0.441657,-0.132204,-0.045722,0.00179,0.055199
1722050980.4721,2024-07-26 20:29:40.472,19,false,0.443925,-0.304016,0.582764,0.609009,0.891127,-0.441657,-0.132204,-0.0458,0.001819,0.055148
1722050980.5034,2024-07-26 20:29:40.503,20,false,0.444008,-0.303894,0.582764,0.609009,0.875502,-0.450935,-0.136599,-0.045688,0.001747,0.055126
1722050980.5346,2024-07-26 20:29:40.534,21,false,0.443963,-0.303955,0.582703,0.60907,0.887709,-0.427985,-0.132204,-0.045612,0.00178,0.055205
1722050980.5659,2024-07-26 20:29:40.565,22,false,0.443924,-0.303894,0.582764,0.60907,0.887709,-0.427985,-0.132204,-0.045543,0.001809,0.055275
1722050980.5971,2024-07-26 20:29:40.597,23,false,0.443966,-0.303955,0.582764,0.609009,0.880385,-0.438727,-0.125368,-0.045493,0.001946,0.055351
1722050980.6284,2024-07-26 20:29:40.628,24,false,0.444088,-0.304016,0.582703,0.608948,0.877455,-0.436774,-0.134646,-0.045473,0.001861,0.055407
1722050980.6596,2024-07-26 20:29:40.659,25,false,0.443924,-0.303894,0.582764,0.60907,0.875502,-0.450935,-0.136599,-0.045527,0.001931,0.055469
1722050980.6909,2024-07-26 20:29:40.690,26,false,0.444043,-0.304199,0.582642,0.608948,0.888197,-0.442145,-0.135622,-0.045613,0.001995,0.055342
1722050980.7221,2024-07-26 20:29:40.722,27,false,0.444165,-0.30426,0.582581,0.608887,0.891127,-0.442145,-0.135622,-0.045642,0.001966,0.055338
1722050980.7534,2024-07-26 20:29:40.753,28,false,0.444165,-0.304382,0.582581,0.608826,0.876967,-0.438727,-0.134646,-0.04557,0.002001,0.055297
1722050980.7846,2024-07-26 20:29:40.784,29,false,0.444207,-0.304321,0.582581,0.608826,0.876967,-0.438727,-0.134646,-0.045505,0.002033,0.055261
1722050980.8159,2024-07-26 20:29:40.815,30,false,0.44413,-0.304321,0.582703,0.608765,0.873549,-0.426032,-0.137087,-0.045593,0.002111,0.055362
1722050980.8471,2024-07-26 20:29:40.847,31,false,0.444256,-0.30426,0.582703,0.608704,0.889174,-0.44361,-0.134157,-0.045612,0.002217,0.055368
1722050980.8784,2024-07-26 20:29:40.878,0,false,0.444214,-0.304321,0.582703,0.608704,0.889174,-0.44361,-0.134157,-0.045628,0.002313,0.055373
1722050980.9096,2024-07-26 20:29:40.909,1,false,0.444374,-0.304443,0.582581,0.608643,0.883314,-0.430915,-0.125368,-0.04557,0.002179,0.055354
1722050980.9409,2024-07-26 20:29:40.940,2,false,0.444419,-0.304382,0.582642,0.608582,0.879896,-0.434821,-0.127321,-0.045493,0.002095,0.055275
1722050980.9721,2024-07-26 20:29:40.972,3,false,0.444301,-0.304443,0.582764,0.608521,0.879896,-0.434821,-0.127321,-0.045424,0.00202,0.055204
1722050981.0034,2024-07-26 20:29:41.003,4,false,0.444096,-0.304382,0.582825,0.608643,0.879896,-0.434821,-0.127321,-0.045361,0.001952,0.05514
1722050981.0346,2024-07-26 20:29:41.034,5,false,0.44389,-0.304443,0.582886,0.608704,0.885267,-0.436774,-0.125368,-0.045305,0.001952,0.055083
1722050981.0659,2024-07-26 20:29:41.065,6,false,0.443764,-0.304504,0.582886,0.608765,0.883803,-0.435798,-0.139528,-0.045353,0.00183,0.055178
1722050981.0971,2024-07-26 20:29:41.097,7,false,0.443848,-0.304382,0.582886,0.608765,0.883803,-0.435798,-0.139528,-0.045395,0.001721,0.055263
1722050981.1284,2024-07-26 20:29:41.128,8,false,0.443855,-0.30426,0.583008,0.608704,0.884779,-0.431891,-0.135622,-0.045299,0.001744,0.055132
1722050981.1596,2024-07-26 20:29:41.159,9,false,0.444064,-0.304199,0.583008,0.608582,0.882826,-0.435798,-0.133669,-0.045249,0.001887,0.055137
1722050981.1909,2024-07-26 20:29:41.190,10,false,0.444064,-0.304199,0.583008,0.608582,0.882826,-0.435798,-0.133669,-0.045168,0.001857,0.05508
1722050981.2221,2024-07-26 20:29:41.222,11,false,0.443932,-0.304138,0.582886,0.608826,0.873549,-0.437263,-0.12781,-0.045265,0.001879,0.055126
1722050981.2534,2024-07-26 20:29:41.253,12,false,0.44405,-0.304199,0.582764,0.608826,0.880873,-0.448005,-0.136599,-0.045402,0.001911,0.055192
1722050981.2846,2024-07-26 20:29:41.284,13,false,0.444088,-0.304138,0.582703,0.608887,0.880873,-0.448005,-0.136599,-0.045525,0.001939,0.055252
1722050981.3159,2024-07-26 20:29:41.315,14,false,0.444214,-0.303833,0.582703,0.608948,0.87892,-0.42945,-0.134157,-0.045501,0.001953,0.055256
1722050981.3471,2024-07-26 20:29:41.347,15,false,0.444217,-0.303711,0.582764,0.608948,0.882826,-0.429938,-0.138552,-0.045639,0.00199,0.055224
1722050981.3784,2024-07-26 20:29:41.378,16,false,0.444217,-0.303589,0.582764,0.609009,0.882826,-0.429938,-0.138552,-0.045762,0.002022,0.055195
1722050981.4096,2024-07-26 20:29:41.409,17,false,0.444214,-0.303833,0.582703,0.608948,0.885267,-0.43238,-0.128298,-0.045898,0.001967,0.055144
1722050981.4409,2024-07-26 20:29:41.440,18,false,0.444342,-0.30365,0.582764,0.608887,0.885267,-0.43238,-0.128298,-0.045849,0.001965,0.055172
1722050981.4721,2024-07-26 20:29:41.472,19,false,0.444259,-0.30365,0.582764,0.608948,0.878431,-0.426032,-0.136599,-0.045793,0.001976,0.055184
1722050981.5034,2024-07-26 20:29:41.503,20,false,0.444297,-0.303589,0.582703,0.609009,0.877455,-0.441169,-0.136599,-0.045804,0.001986,0.055159
1722050981.5346,2024-07-26 20:29:41.534,21,false,0.444178,-0.303406,0.582825,0.60907,0.877455,-0.441169,-0.136599,-0.045874,0.001934,0.055173
1722050981.5659,2024-07-26 20:29:41.565,22,false,0.443934,-0.303284,0.582947,0.609192,0.888685,-0.438239,-0.130739,-0.045865,0.001997,0.055235
1722050981.5971,2024-07-26 20:29:41.597,23,false,0.443937,-0.303284,0.583008,0.609131,0.89308,-0.450446,-0.123903,-0.045819,0.002017,0.055229
1722050981.6284,2024-07-26 20:29:41.628,24,false,0.443892,-0.303345,0.582947,0.609192,0.89308,-0.450446,-0.123903,-0.045815,0.001974,0.055309
1722050981.6596,2024-07-26 20:29:41.659,25,false,0.443854,-0.303284,0.583008,0.609192,0.894057,-0.443122,-0.137575,-0.045787,0.001984,0.055247
1722050981.6909,2024-07-26 20:29:41.690,26,false,0.443979,-0.303223,0.583008,0.609131,0.87599,-0.429938,-0.131716,-0.045798,0.002054,0.055277
1722050981.7221,2024-07-26 20:29:41.722,27,false,0.443982,-0.303101,0.583069,0.609131,0.87599,-0.429938,-0.131716,-0.045759,0.001983,0.055352
1722050981.7534,2024-07-26 20:29:41.753,28,false,0.443989,-0.302979,0.583191,0.60907,0.884779,-0.437263,-0.134646,-0.045627,0.002066,0.055334
1722050981.7846,2024-07-26 20:29:41.784,29,false,0.443612,-0.302917,0.583191,0.609375,0.874525,-0.42652,-0.132204,-0.045532,0.00203,0.055355
1722050981.8159,2024-07-26 20:29:41.815,30,false,0.443447,-0.302795,0.583252,0.609497,0.889662,-0.422614,-0.117556,-0.045459,0.002047,0.055276
1722050981.8471,2024-07-26 20:29:41.847,31,false,0.443447,-0.302795,0.583252,0.609497,0.873549,-0.441657,-0.134646,-0.045442,0.00205,0.055303
1722050981.8784,2024-07-26 20:29:41.878,0,false,0.443572,-0.302612,0.583252,0.609497,0.89308,-0.443122,-0.130251,-0.045475,0.002064,0.055376
1722050981.9096,2024-07-26 20:29:41.909,1,false,0.443652,-0.30249,0.583191,0.609558,0.89308,-0.443122,-0.130251,-0.045506,0.002078,0.055441
1722050981.9409,2024-07-26 20:29:41.940,2,false,0.443567,-0.302368,0.583191,0.60968,0.881361,-0.446052,-0.132204,-0.045508,0.002016,0.05539
1722050981.9721,2024-07-26 20:29:41.972,3,false,0.443442,-0.302429,0.583191,0.609741,0.882826,-0.438727,-0.145388,-0.045621,0.001973,0.055247
1722050982.0034,2024-07-26 20:29:42.003,4,false,0.443476,-0.302368,0.583069,0.609863,0.882826,-0.438727,-0.145388,-0.045722,0.001935,0.055118
1722050982.0346,2024-07-26 20:29:42.034,5,false,0.443514,-0.302307,0.583008,0.609924,0.87599,-0.44947,-0.128298,-0.045764,0.001949,0.055136
1722050982.0659,2024-07-26 20:29:42.065,6,false,0.44335,-0.302307,0.583069,0.609985,0.888197,-0.433845,-0.140505,-0.045851,0.001913,0.055164
1722050982.0971,2024-07-26 20:29:42.097,7,false,0.443563,-0.302246,0.58313,0.609802,0.888197,-0.433845,-0.140505,-0.045929,0.00188,0.05519
1722050982.1284,2024-07-26 20:29:42.128,8,false,0.443486,-0.302246,0.583252,0.609741,0.886244,-0.431891,-0.12781,-0.04584,0.001729,0.055213
1722050982.1596,2024-07-26 20:29:42.159,9,false,0.443448,-0.302185,0.583313,0.609741,0.881849,-0.430426,-0.126833,-0.045871,0.001641,0.055246
1722050982.1909,2024-07-26 20:29:42.190,10,false,0.443563,-0.302246,0.58313,0.609802,0.87599,-0.44947,-0.128298,-0.045861,0.001611,0.055203
1722050982.2221,2024-07-26 20:29:42.222,11,false,0.44349,-0.302246,0.583313,0.60968,0.869154,-0.436286,-0.136599,-0.045853,0.001585,0.055163
1722050982.2534,2024-07-26 20:29:42.253,12,false,0.443524,-0.302185,0.583191,0.609802,0.879408,-0.444099,-0.119509,-0.045857,0.001512,0.055238
1722050982.2846,2024-07-26 20:29:42.284,13,false,0.443364,-0.302185,0.583313,0.609802,0.87892,-0.448981,-0.133669,-0.045813,0.00158,0.055317
1722050982.3159,2024-07-26 20:29:42.315,14,false,0.443201,-0.301941,0.583435,0.609924,0.87892,-0.448981,-0.133669,-0.045773,0.001678,0.055144
1722050982.3471,2024-07-26 20:29:42.347,15,false,0.443278,-0.301941,0.583313,0.609985,0.889662,-0.439216,-0.136599,-0.045956,0.001523,0.055111
1722050982.3784,2024-07-26 20:29:42.378,16,false,0.443152,-0.30188,0.583313,0.610107,0.883314,-0.446052,-0.136599,-0.045853,0.0017,0.055008
1722050982.4096,2024-07-26 20:29:42.409,17,false,0.443151,-0.301758,0.583313,0.610168,0.883314,-0.446052,-0.136599,-0.045845,0.001725,0.055049
1722050982.4409,2024-07-26 20:29:42.440,18,false,0.443196,-0.301697,0.583374,0.610107,0.870619,-0.437263,-0.126345,-0.045753,0.00176,0.055037
1722050982.4721,2024-07-26 20:29:42.472,19,false,0.44328,-0.301697,0.583374,0.610046,0.882338,-0.442145,-0.13904,-0.045792,0.001914,0.054978
