Time,Timestamp,Counter,Interpolated,Accelerometer X,Accelerometer Y,Accelerometer Z,Magnetometer X,Magnetometer Y,Magnetometer Z,Quaternion 0,Quaternion 1,Quaternion 2,Quaternion 3
1722054623.9449,2024-07-26 21:30:23.944,25,false,0.444134,-0.303528,0.582092,0.609741,0.882826,-0.449958,-0.130739,-0.04563,0.001338,0.054721
1722054623.9762,2024-07-26 21:30:23.976,26,false,0.444378,-0.30365,0.58197,0.609619,0.881849,-0.435309,-0.142458,-0.045645,0.001338,0.054645
1722054624.0074,2024-07-26 21:30:24.007,27,false,0.444424,-0.303833,0.582031,0.609436,0.87306,-0.440681,-0.140017,-0.045622,0.0014,0.054759
1722054624.0387,2024-07-26 21:30:24.038,28,false,0.44447,-0.303894,0.582092,0.609314,0.87306,-0.440681,-0.140017,-0.0456,0.001455,0.054862
1722054624.0699,2024-07-26 21:30:24.069,29,false,0.444306,-0.304016,0.582153,0.609314,0.872572,-0.433845,-0.140017,-0.045655,0.001542,0.054869
1722054624.1012,2024-07-26 21:30:24.101,30,false,0.444264,-0.303955,0.582153,0.609375,0.89308,-0.430915,-0.135622,-0.04563,0.001461,0.054802
1722054624.1324,2024-07-26 21:30:24.132,31,false,0.44447,-0.303894,0.582092,0.609314,0.881849,-0.435309,-0.142458,-0.045535,0.001547,0.054852
1722054624.1637,2024-07-26 21:30:24.163,0,false,0.444139,-0.304016,0.582153,0.609436,0.881849,-0.42945,-0.135622,-0.045449,0.001624,0.054896
1722054624.1949,2024-07-26 21:30:24.194,1,false,0.444139,-0.303894,0.582153,0.609497,0.884291,-0.446052,-0.132204,-0.045397,0.001571,0.054998
1722054624.2262,2024-07-26 21:30:24.226,2,false,0.444181,-0.303955,0.582153,0.609436,0.888685,-0.439704,-0.129763,-0.045337,0.001487,0.055077
1722054624.2574,2024-07-26 21:30:24.257,3,false,0.44407,-0.303894,0.582397,0.609314,0.888685,-0.439704,-0.129763,-0.045284,0.001412,0.055148
1722054624.2887,2024-07-26 21:30:24.288,4,false,0.444028,-0.303833,0.582397,0.609375,0.869642,-0.436286,-0.131228,-0.045345,0.001503,0.055187
1722054624.3199,2024-07-26 21:30:24.319,5,false,0.444066,-0.303894,0.582336,0.609375,0.875013,-0.448493,-0.132692,-0.045388,0.00145,0.055247
1722054624.3512,2024-07-26 21:30:24.351,6,false,0.444146,-0.303894,0.582275,0.609375,0.875013,-0.448493,-0.132692,-0.045464,0.001537,0.055191
1722054624.3824,2024-07-26 21:30:24.382,7,false,0.443986,-0.303894,0.582397,0.609375,0.879408,-0.437263,-0.144411,-0.045495,0.001518,0.055092
1722054624.4137,2024-07-26 21:30:24.413,8,false,0.443906,-0.303894,0.582458,0.609375,0.87306,-0.441169,-0.14197,-0.045523,0.001586,0.055003
1722054624.4449,2024-07-26 21:30:24.444,9,false,0.443906,-0.303894,0.582458,0.609375,0.87306,-0.441169,-0.14197,-0.045585,0.001573,0.055057
1722054624.4762,2024-07-26 21:30:24.476,10,false,0.443781,-0.303955,0.582458,0.609436,0.87306,-0.441169,-0.14197,-0.045641,0.001563,0.055105
1722054624.5074,2024-07-26 21:30:24.507,11,false,0.443823,-0.304016,0.582458,0.609375,0.878431,-0.440681,-0.138064,-0.04563,0.001516,0.055039
1722054624.5387,2024-07-26 21:30:24.538,12,false,0.443781,-0.304077,0.582458,0.609375,0.89015,-0.452888,-0.134646,-0.045669,0.001523,0.055078
1722054624.5699,2024-07-26 21:30:24.569,13,false,0.443746,-0.304016,0.582581,0.609314,0.89015,-0.452888,-0.134646,-0.045656,0.001603,0.055161
1722054624.6012,2024-07-26 21:30:24.601,14,false,0.443582,-0.304016,0.582642,0.609375,0.876478,-0.431403,-0.134157,-0.045619,0.00165,0.055321
1722054624.6324,2024-07-26 21:30:24.632,15,false,0.44362,-0.303955,0.582581,0.609436,0.875013,-0.443122,-0.135134,-0.045647,0.001656,0.055319
1722054624.6637,2024-07-26 21:30:24.663,16,false,0.443411,-0.304016,0.582581,0.609558,0.875013,-0.443122,-0.135134,-0.045672,0.001661,0.055317
1722054624.6949,2024-07-26 21:30:24.694,17,false,0.443445,-0.304077,0.582458,0.609619,0.878431,-0.442634,-0.128298,-0.045597,0.001764,0.055376
1722054624.7262,2024-07-26 21:30:24.726,18,false,0.443438,-0.304199,0.582336,0.60968,0.871595,-0.451911,-0.141482,-0.045652,0.001734,0.055283
1722054624.7574,2024-07-26 21:30:24.757,19,false,0.44356,-0.304138,0.582275,0.60968,0.871595,-0.451911,-0.141482,-0.045701,0.001707,0.055199
1722054624.7887,2024-07-26 21:30:24.788,20,false,0.443678,-0.304199,0.582153,0.60968,0.87892,-0.433356,-0.140993,-0.045721,0.001768,0.055148
1722054624.8199,2024-07-26 21:30:24.819,21,false,0.443846,-0.304321,0.582153,0.609497,0.880873,-0.439216,-0.138064,-0.04569,0.001665,0.05509
1722054624.8512,2024-07-26 21:30:24.851,22,false,0.44377,-0.304199,0.582275,0.609497,0.880873,-0.439216,-0.138064,-0.045662,0.001571,0.055037
1722054624.8824,2024-07-26 21:30:24.882,23,false,0.443678,-0.304199,0.582153,0.60968,0.883314,-0.436286,-0.126345,-0.045734,0.001549,0.055076
1722054624.9137,2024-07-26 21:30:24.913,24,false,0.443724,-0.304138,0.582214,0.609619,0.883314,-0.436286,-0.126345,-0.0458,0.001528,0.05511
1722054624.9449,2024-07-26 21:30:24.944,25,false,0.443591,-0.304199,0.582092,0.609802,0.894545,-0.431891,-0.134157,-0.045822,0.001412,0.055056
1722054624.9762,2024-07-26 21:30:24.976,26,false,0.443381,-0.304138,0.582092,0.609985,0.870619,-0.451423,-0.140505,-0.045842,0.00149,0.055068
1722054625.0074,2024-07-26 21:30:25.007,27,false,0.4433,-0.304016,0.582153,0.610046,0.870619,-0.451423,-0.140505,-0.04586,0.001561,0.055079
1722054625.0387,2024-07-26 21:30:25.038,28,false,0.443434,-0.303955,0.582275,0.609863,0.885267,-0.436286,-0.145388,-0.045766,0.001551,0.055162
1722054625.0699,2024-07-26 21:30:25.069,29,false,0.443354,-0.303955,0.582336,0.609863,0.884291,-0.435309,-0.146365,-0.04584,0.001628,0.055114
1722054625.1012,2024-07-26 21:30:25.101,30,false,0.44343,-0.303955,0.582214,0.609924,0.884291,-0.435309,-0.146365,-0.045907,0.001697,0.055072
1722054625.1324,2024-07-26 21:30:25.132,31,false,0.443506,-0.304077,0.582092,0.609924,0.872084,-0.438727,-0.137575,-0.045931,0.001674,0.055033
1722054625.1637,2024-07-26 21:30:25.163,0,false,0.443507,-0.304321,0.582092,0.609802,0.876967,-0.445075,-0.130251,-0.04605,0.001678,0.05506
1722054625.1949,2024-07-26 21:30:25.194,1,false,0.443518,-0.304321,0.582275,0.609619,0.876967,-0.445075,-0.130251,-0.046157,0.001681,0.055084
1722054625.2262,2024-07-26 21:30:25.226,2,false,0.443518,-0.304443,0.582275,0.609558,0.877455,-0.437751,-0.143923,-0.046204,0.001671,0.055093
1722054625.2574,2024-07-26 21:30:25.257,3,false,0.443728,-0.304626,0.582275,0.609314,0.888197,-0.44361,-0.138064,-0.046162,0.001638,0.055065
1722054625.2887,2024-07-26 21:30:25.288,4,false,0.443865,-0.304688,0.582458,0.609009,0.869154,-0.448981,-0.129274,-0.04605,0.00167,0.055039
1722054625.3199,2024-07-26 21:30:25.319,5,false,0.443948,-0.304688,0.582458,0.608948,0.893568,-0.435798,-0.129274,-0.045998,0.001674,0.055004
1722054625.3512,2024-07-26 21:30:25.351,6,false,0.443945,-0.30481,0.582397,0.608948,0.887221,-0.441169,-0.131228,-0.045939,0.001702,0.054924
1722054625.3824,2024-07-26 21:30:25.382,7,false,0.443819,-0.304993,0.582397,0.608948,0.887221,-0.441169,-0.131228,-0.045984,0.00169,0.054913
1722054625.4137,2024-07-26 21:30:25.413,8,false,0.443819,-0.304993,0.582397,0.608948,0.883803,-0.438727,-0.131228,-0.045915,0.001692,0.054829
1722054625.4449,2024-07-26 21:30:25.444,9,false,0.443872,-0.304932,0.582581,0.608765,0.890639,-0.432868,-0.129763,-0.045877,0.001633,0.054839
1722054625.4762,2024-07-26 21:30:25.476,10,false,0.443872,-0.304932,0.582581,0.608765,0.890639,-0.432868,-0.129763,-0.045842,0.001579,0.054849
1722054625.5074,2024-07-26 21:30:25.507,11,false,0.443913,-0.305115,0.582581,0.608643,0.882826,-0.440681,-0.13611,-0.045848,0.001629,0.054979
1722054625.5387,2024-07-26 21:30:25.538,12,false,0.444032,-0.305176,0.582458,0.608643,0.875502,-0.432868,-0.131228,-0.045768,0.001722,0.05506
1722054625.5699,2024-07-26 21:30:25.569,13,false,0.44399,-0.305237,0.582458,0.608643,0.875502,-0.432868,-0.131228,-0.045695,0.001807,0.055133
1722054625.6012,2024-07-26 21:30:25.601,14,false,0.444069,-0.305359,0.582397,0.608582,0.882826,-0.422126,-0.137575,-0.045716,0.001711,0.055149
1722054625.6324,2024-07-26 21:30:25.632,15,false,0.444279,-0.305298,0.582397,0.608459,0.879408,-0.439216,-0.13611,-0.045795,0.001772,0.055128
1722054625.6637,2024-07-26 21:30:25.663,16,false,0.44399,-0.305237,0.582458,0.608643,0.882826,-0.440681,-0.13611,-0.045683,0.001827,0.055145
1722054625.6949,2024-07-26 21:30:25.694,17,false,0.444275,-0.30542,0.582336,0.608459,0.879896,-0.426032,-0.130739,-0.045583,0.001876,0.05516
1722054625.7262,2024-07-26 21:30:25.726,18,false,0.44416,-0.305359,0.58252,0.608398,0.879896,-0.430426,-0.133669,-0.045566,0.001884,0.055223
1722054625.7574,2024-07-26 21:30:25.757,19,false,0.444035,-0.305298,0.58252,0.608521,0.885756,-0.440681,-0.132204,-0.045672,0.001915,0.055218
1722054625.7887,2024-07-26 21:30:25.788,20,false,0.443913,-0.305115,0.582581,0.608643,0.885756,-0.440681,-0.132204,-0.045634,0.001992,0.05519
1722054625.8199,2024-07-26 21:30:25.819,21,false,0.443871,-0.305176,0.582581,0.608643,0.884291,-0.430915,-0.140993,-0.045538,0.001878,0.055164
1722054625.8512,2024-07-26 21:30:25.851,22,false,0.443921,-0.305115,0.582703,0.608521,0.883803,-0.446052,-0.133181,-0.045404,0.002008,0.055165
1722054625.8824,2024-07-26 21:30:25.882,23,false,0.443921,-0.305115,0.582703,0.608521,0.883803,-0.446052,-0.133181,-0.045282,0.002125,0.055166
1722054625.9137,2024-07-26 21:30:25.913,24,false,0.44384,-0.305115,0.582764,0.608521,0.885267,-0.444587,-0.132204,-0.045258,0.002107,0.055106
1722054625.9449,2024-07-26 21:30:25.944,25,false,0.443959,-0.305176,0.582642,0.608521,0.888197,-0.445075,-0.13611,-0.045323,0.002165,0.054979
1722054625.9762,2024-07-26 21:30:25.976,26,false,0.443833,-0.305237,0.582642,0.608582,0.888197,-0.445075,-0.13611,-0.045344,0.002217,0.055096
1722054626.0074,2024-07-26 21:30:26.007,27,false,0.444,-0.305237,0.582642,0.608459,0.892592,-0.437751,-0.143435,-0.045411,0.002191,0.055129
1722054626.0387,2024-07-26 21:30:26.038,28,false,0.444156,-0.305481,0.582458,0.608398,0.877943,-0.432868,-0.134646,-0.045472,0.002106,0.055244
1722054626.0699,2024-07-26 21:30:26.069,29,false,0.444076,-0.305481,0.58252,0.608398,0.891127,-0.440681,-0.13904,-0.045478,0.001944,0.055212
1722054626.1012,2024-07-26 21:30:26.101,30,false,0.444073,-0.305481,0.582458,0.608459,0.882826,-0.434821,-0.133181,-0.04552,0.001982,0.055136
1722054626.1324,2024-07-26 21:30:26.132,31,false,0.444069,-0.305603,0.582397,0.608459,0.871107,-0.437263,-0.133669,-0.045546,0.002101,0.055164
1722054626.1637,2024-07-26 21:30:26.163,0,false,0.44403,-0.305664,0.582458,0.608398,0.871107,-0.437263,-0.133669,-0.045569,0.002208,0.05519
1722054626.1949,2024-07-26 21:30:26.194,1,false,0.444069,-0.305603,0.582397,0.608459,0.882826,-0.441657,-0.132204,-0.04559,0.002122,0.055152
1722054626.2262,2024-07-26 21:30:26.226,2,false,0.444148,-0.305847,0.582336,0.608337,0.881849,-0.44361,-0.127321,-0.045535,0.002288,0.055154
1722054626.2574,2024-07-26 21:30:26.257,3,false,0.444106,-0.305786,0.582336,0.608398,0.881849,-0.44361,-0.127321,-0.045486,0.002279,0.055157
1722054626.2887,2024-07-26 21:30:26.288,4,false,0.444106,-0.305786,0.582336,0.608398,0.891615,-0.437751,-0.128786,-0.045576,0.002124,0.055183
1722054626.3199,2024-07-26 21:30:26.319,5,false,0.444148,-0.305847,0.582336,0.608337,0.879896,-0.438239,-0.129274,-0.045413,0.002022,0.055134
1722054626.3512,2024-07-26 21:30:26.351,6,false,0.444186,-0.305786,0.582275,0.608398,0.879896,-0.438239,-0.129274,-0.045267,0.001929,0.055089
1722054626.3824,2024-07-26 21:30:26.382,7,false,0.444144,-0.305847,0.582275,0.608398,0.885267,-0.424079,-0.142458,-0.045293,0.001822,0.055049
1722054626.4137,2024-07-26 21:30:26.413,8,false,0.44443,-0.305786,0.582153,0.608337,0.883803,-0.419196,-0.146365,-0.045256,0.001872,0.055135
1722054626.4449,2024-07-26 21:30:26.444,9,false,0.444186,-0.305786,0.582275,0.608398,0.891615,-0.437751,-0.128786,-0.045125,0.001831,0.055115
1722054626.4762,2024-07-26 21:30:26.476,10,false,0.444471,-0.305847,0.582153,0.608276,0.881849,-0.439704,-0.128298,-0.045007,0.001794,0.055096
1722054626.5074,2024-07-26 21:30:26.507,11,false,0.444391,-0.305969,0.582214,0.608215,0.899916,-0.439704,-0.134157,-0.045084,0.001627,0.055166
1722054626.5387,2024-07-26 21:30:26.538,12,false,0.444345,-0.30603,0.582153,0.608276,0.881361,-0.436774,-0.133669,-0.045166,0.001757,0.055203
1722054626.5699,2024-07-26 21:30:26.569,13,false,0.444304,-0.305969,0.582153,0.608337,0.881361,-0.436774,-0.133669,-0.045239,0.001875,0.055237
1722054626.6012,2024-07-26 21:30:26.601,14,false,0.444141,-0.305847,0.582214,0.608459,0.886244,-0.433845,-0.125856,-0.04533,0.001956,0.055268
1722054626.6324,2024-07-26 21:30:26.632,15,false,0.444349,-0.305908,0.582214,0.608276,0.885756,-0.441169,-0.120485,-0.045448,0.001992,0.055271
1722054626.6637,2024-07-26 21:30:26.663,16,false,0.444395,-0.305847,0.582275,0.608215,0.885756,-0.441169,-0.120485,-0.045505,0.00211,0.0552
1722054626.6949,2024-07-26 21:30:26.694,17,false,0.444399,-0.305847,0.582336,0.608154,0.874037,-0.433356,-0.136599,-0.045495,0.002217,0.055222
1722054626.7262,2024-07-26 21:30:26.726,18,false,0.444525,-0.305664,0.582336,0.608154,0.882826,-0.428473,-0.132204,-0.045426,0.002154,0.055364
1722054626.7574,2024-07-26 21:30:26.757,19,false,0.444559,-0.305725,0.582214,0.608215,0.882826,-0.428473,-0.132204,-0.045363,0.002097,0.055492
1722054626.7887,2024-07-26 21:30:26.788,20,false,0.44463,-0.306091,0.582031,0.608154,0.882826,-0.428473,-0.132204,-0.045405,0.002144,0.05557
1722054626.8199,2024-07-26 21:30:26.819,21,false,0.444665,-0.30603,0.581909,0.608276,0.87599,-0.433845,-0.126833,-0.045442,0.002186,0.05547
1722054626.8512,2024-07-26 21:30:26.851,22,false,0.444908,-0.30603,0.581787,0.608215,0.884291,-0.437263,-0.129763,-0.045317,0.002162,0.055526
1722054626.8824,2024-07-26 21:30:26.882,23,false,0.44495,-0.305969,0.581787,0.608215,0.884291,-0.437263,-0.129763,-0.045204,0.002141,0.055577
1722054626.9137,2024-07-26 21:30:26.913,24,false,0.444953,-0.306091,0.581848,0.608093,0.892592,-0.428473,-0.12195,-0.045225,0.002123,0.055598
1722054626.9449,2024-07-26 21:30:26.944,25,false,0.444835,-0.306152,0.58197,0.608032,0.896498,-0.437751,-0.138064,-0.045195,0.002118,0.055568
1722054626.9762,2024-07-26 21:30:26.976,26,false,0.444634,-0.306091,0.582092,0.608093,0.896498,-0.437751,-0.138064,-0.045216,0.002126,0.055492
1722054627.0074,2024-07-26 21:30:27.007,27,false,0.444596,-0.30603,0.582153,0.608093,0.876967,-0.427497,-0.133669,-0.045187,0.00206,0.055497
1722054627.0387,2024-07-26 21:30:27.038,28,false,0.444562,-0.305969,0.582275,0.608032,0.880385,-0.431891,-0.133181,-0.045209,0.002049,0.055367
1722054627.0699,2024-07-26 21:30:27.069,29,false,0.444607,-0.305908,0.582336,0.607971,0.880385,-0.431891,-0.133181,-0.045229,0.002039,0.055251
1722054627.1012,2024-07-26 21:30:27.101,30,false,0.444604,-0.305908,0.582275,0.608032,0.877943,-0.435309,-0.133669,-0.045174,0.002043,0.055378
1722054627.1324,2024-07-26 21:30:27.132,31,false,0.444725,-0.305847,0.582214,0.608032,0.891615,-0.436286,-0.132692,-0.045198,0.002058,0.055443
1722054627.1637,2024-07-26 21:30:27.163,0,false,0.444604,-0.305908,0.582275,0.608032,0.889662,-0.440681,-0.14197,-0.045268,0.002121,0.055428
1722054627.1949,2024-07-26 21:30:27.194,1,false,0.444604,-0.305908,0.582275,0.608032,0.885756,-0.432868,-0.133669,-0.045319,0.002129,0.055367
1722054627.2262,2024-07-26 21:30:27.226,2,false,0.444935,-0.305664,0.582214,0.607971,0.885756,-0.432868,-0.133669,-0.045365,0.002136,0.055311
1722054627.2574,2024-07-26 21:30:27.257,3,false,0.444977,-0.305603,0.582214,0.607971,0.884779,-0.434821,-0.137575,-0.045418,0.002191,0.055432
1722054627.2887,2024-07-26 21:30:27.288,4,false,0.445018,-0.305664,0.582214,0.60791,0.889174,-0.432868,-0.121462,-0.045491,0.002142,0.055443
1722054627.3199,2024-07-26 21:30:27.319,5,false,0.44506,-0.305603,0.582214,0.60791,0.889174,-0.432868,-0.121462,-0.045556,0.002099,0.055453
1722054627.3512,2024-07-26 21:30:27.351,6,false,0.444775,-0.305542,0.582336,0.608032,0.89015,-0.421637,-0.133181,-0.045554,0.002036,0.055438
1722054627.3824,2024-07-26 21:30:27.382,7,false,0.444775,-0.305542,0.582336,0.608032,0.876967,-0.449958,-0.137087,-0.045613,0.00204,0.055546
1722054627.4137,2024-07-26 21:30:27.413,8,false,0.444654,-0.305481,0.582397,0.608093,0.876967,-0.449958,-0.137087,-0.045666,0.002043,0.055643
1722054627.4449,2024-07-26 21:30:27.444,9,false,0.444574,-0.305481,0.582458,0.608093,0.885756,-0.43238,-0.135622,-0.045738,0.002059,0.055596
1722054627.4762,2024-07-26 21:30:27.476,10,false,0.444699,-0.305542,0.582458,0.607971,0.897475,-0.427497,-0.131716,-0.045864,0.002072,0.055432
1722054627.5074,2024-07-26 21:30:27.507,11,false,0.444824,-0.305481,0.582458,0.60791,0.897475,-0.427497,-0.131716,-0.045977,0.002085,0.055285
1722054627.5387,2024-07-26 21:30:27.538,12,false,0.444863,-0.30542,0.582397,0.607971,0.881849,-0.431403,-0.125856,-0.045884,0.001974,0.055237
1722054627.5699,2024-07-26 21:30:27.569,13,false,0.444539,-0.30542,0.582581,0.608032,0.87892,-0.442634,-0.136599,-0.04591,0.002009,0.055243
1722054627.6012,2024-07-26 21:30:27.601,14,false,0.44454,-0.305298,0.582581,0.608093,0.880873,-0.438727,-0.137575,-0.045921,0.001905,0.0552
1722054627.6324,2024-07-26 21:30:27.632,15,false,0.444582,-0.305115,0.582581,0.608154,0.887221,-0.420661,-0.131716,-0.045858,0.001886,0.05521
1722054627.6637,2024-07-26 21:30:27.663,16,false,0.444464,-0.305054,0.582703,0.608154,0.874525,-0.425055,-0.141482,-0.045813,0.001832,0.055231
1722054627.6949,2024-07-26 21:30:27.694,17,false,0.444384,-0.30481,0.582764,0.608276,0.874525,-0.425055,-0.141482,-0.045773,0.001783,0.05525
1722054627.7262,2024-07-26 21:30:27.726,18,false,0.444221,-0.304932,0.582825,0.608276,0.881849,-0.452888,-0.132204,-0.045847,0.001873,0.055255
1722054627.7574,2024-07-26 21:30:27.757,19,false,0.444168,-0.304993,0.582642,0.608459,0.880873,-0.43238,-0.148318,-0.045803,0.001881,0.055271
1722054627.7887,2024-07-26 21:30:27.788,20,false,0.44413,-0.304932,0.582703,0.608459,0.880873,-0.43238,-0.148318,-0.045764,0.001827,0.055323
1722054627.8199,2024-07-26 21:30:27.819,21,false,0.444054,-0.30481,0.582825,0.608459,0.883314,-0.448493,-0.135622,-0.045728,0.001803,0.055394
1722054627.8512,2024-07-26 21:30:27.851,22,false,0.443981,-0.304688,0.583008,0.608398,0.883314,-0.428962,-0.13904,-0.045807,0.001855,0.055323
1722054627.8824,2024-07-26 21:30:27.882,23,false,0.443901,-0.304565,0.583069,0.608459,0.883314,-0.428962,-0.13904,-0.045877,0.001901,0.05526
1722054627.9137,2024-07-26 21:30:27.913,24,false,0.443939,-0.304504,0.583008,0.608521,0.880873,-0.441657,-0.136599,-0.045842,0.001919,0.055288
1722054627.9449,2024-07-26 21:30:27.944,25,false,0.443852,-0.304382,0.582947,0.608704,0.884291,-0.439704,-0.13611,-0.045921,0.001983,0.055216
1722054627.9762,2024-07-26 21:30:27.976,26,false,0.443901,-0.304565,0.583069,0.608459,0.883314,-0.448493,-0.135622,-0.046029,0.001882,0.055297
1722054628.0074,2024-07-26 21:30:28.007,27,false,0.443817,-0.304321,0.583069,0.608643,0.880385,-0.439216,-0.132204,-0.046126,0.001914,0.055163
1722054628.0387,2024-07-26 21:30:28.038,28,false,0.443782,-0.304138,0.583191,0.608643,0.876967,-0.444587,-0.137575,-0.046091,0.001942,0.055128
1722054628.0699,2024-07-26 21:30:28.069,29,false,0.443866,-0.304138,0.583191,0.608582,0.888685,-0.426032,-0.143923,-0.045986,0.001821,0.055133
1722054628.1012,2024-07-26 21:30:28.101,30,false,0.443702,-0.30426,0.583252,0.608582,0.888685,-0.426032,-0.143923,-0.045892,0.001712,0.055137
1722054628.1324,2024-07-26 21:30:28.132,31,false,0.443622,-0.304138,0.583313,0.608643,0.879896,-0.433356,-0.131228,-0.045783,0.001761,0.055227
1722054628.1637,2024-07-26 21:30:28.163,0,false,0.443496,-0.304077,0.583313,0.608765,0.876967,-0.427985,-0.133669,-0.045868,0.001805,0.055222
1722054628.1949,2024-07-26 21:30:28.194,1,false,0.443419,-0.303833,0.583435,0.608826,0.876967,-0.427985,-0.133669,-0.045834,0.001856,0.055193
1722054628.2262,2024-07-26 21:30:28.226,2,false,0.443426,-0.303711,0.583557,0.608765,0.872084,-0.437751,-0.135134,-0.045841,0.001902,0.055167
1722054628.2574,2024-07-26 21:30:28.257,3,false,0.443467,-0.303528,0.583557,0.608826,0.884291,-0.431403,-0.137087,-0.04581,0.001981,0.055204
1722054628.2887,2024-07-26 21:30:28.288,4,false,0.44355,-0.303284,0.583557,0.608887,0.884291,-0.431403,-0.137087,-0.04577,0.001856,0.055287
1722054628.3199,2024-07-26 21:30:28.319,5,false,0.443585,-0.303223,0.583435,0.609009,0.882826,-0.439704,-0.137087,-0.045783,0.001902,0.055252
1722054628.3512,2024-07-26 21:30:28.351,6,false,0.443586,-0.303467,0.583435,0.608887,0.873549,-0.439704,-0.138552,-0.045807,0.001785,0.055244
1722054628.3824,2024-07-26 21:30:28.382,7,false,0.443495,-0.303589,0.583313,0.609009,0.877943,-0.445563,-0.137575,-0.045938,0.001717,0.055188
1722054628.4137,2024-07-26 21:30:28.413,8,false,0.44345,-0.30365,0.583252,0.60907,0.878431,-0.44361,-0.135622,-0.045946,0.001679,0.055248
1722054628.4449,2024-07-26 21:30:28.444,9,false,0.443534,-0.30365,0.583252,0.609009,0.895033,-0.447028,-0.146853,-0.045795,0.00167,0.055143
1722054628.4762,2024-07-26 21:30:28.476,10,false,0.443576,-0.303589,0.583252,0.609009,0.895033,-0.447028,-0.146853,-0.045659,0.001662,0.055049
1722054628.5074,2024-07-26 21:30:28.507,11,false,0.443579,-0.303589,0.583313,0.608948,0.883803,-0.442145,-0.143435,-0.045598,0.001569,0.055025
1722054628.5387,2024-07-26 21:30:28.538,12,false,0.443534,-0.30365,0.583252,0.609009,0.894057,-0.443122,-0.146853,-0.045542,0.001668,0.054943
1722054628.5699,2024-07-26 21:30:28.569,13,false,0.443492,-0.303589,0.583252,0.60907,0.894057,-0.443122,-0.146853,-0.045578,0.001611,0.054942
1722054628.6012,2024-07-26 21:30:28.601,14,false,0.443404,-0.303589,0.583191,0.609192,0.887221,-0.451423,-0.140505,-0.045525,0.001548,0.054929
1722054628.6324,2024-07-26 21:30:28.632,15,false,0.443446,-0.303406,0.583191,0.609253,0.884291,-0.434333,-0.122927,-0.045526,0.001662,0.054905
1722054628.6637,2024-07-26 21:30:28.663,16,false,0.443407,-0.303345,0.583252,0.609253,0.884291,-0.434333,-0.122927,-0.045526,0.001764,0.054883
1722054628.6949,2024-07-26 21:30:28.694,17,false,0.443285,-0.303284,0.583313,0.609314,0.87306,-0.454841,-0.12781,-0.045515,0.001844,0.054937
1722054628.7262,2024-07-26 21:30:28.726,18,false,0.443446,-0.303406,0.583191,0.609253,0.87306,-0.454841,-0.12781,-0.045602,0.001818,0.055046
1722054628.7574,2024-07-26 21:30:28.757,19,false,0.443327,-0.303223,0.583313,0.609314,0.87599,-0.436774,-0.141482,-0.04562,0.001795,0.055084
1722054628.7887,2024-07-26 21:30:28.788,20,false,0.44333,-0.303223,0.583374,0.609253,0.900893,-0.434333,-0.138064,-0.045501,0.001689,0.055117
1722054628.8199,2024-07-26 21:30:28.819,21,false,0.443369,-0.303284,0.583313,0.609253,0.900893,-0.434333,-0.138064,-0.045394,0.001593,0.055148
1722054628.8512,2024-07-26 21:30:28.851,22,false,0.443449,-0.303284,0.583252,0.609253,0.872572,-0.448981,-0.13904,-0.045384,0.001605,0.055285
1722054628.8824,2024-07-26 21:30:28.882,23,false,0.443526,-0.303284,0.58313,0.609314,0.869642,-0.442634,-0.1449,-0.045386,0.001664,0.055213
1722054628.9137,2024-07-26 21:30:28.913,24,false,0.443525,-0.303162,0.58313,0.609375,0.869642,-0.442634,-0.1449,-0.045389,0.001717,0.055148
1722054628.9449,2024-07-26 21:30:28.944,25,false,0.443361,-0.303162,0.583191,0.609436,0.884291,-0.442145,-0.134646,-0.045538,0.001753,0.055249
1722054628.9762,2024-07-26 21:30:28.976,26,false,0.443151,-0.303101,0.583191,0.609619,0.875502,-0.442634,-0.13904,-0.045488,0.001675,0.055205
1722054629.0074,2024-07-26 21:30:29.007,27,false,0.443196,-0.30304,0.583252,0.609558,0.875502,-0.442634,-0.13904,-0.045444,0.001606,0.055166
1722054629.0387,2024-07-26 21:30:29.038,28,false,0.443119,-0.302917,0.583374,0.609558,0.880873,-0.450446,-0.131228,-0.045477,0.001518,0.055167
1722054629.0699,2024-07-26 21:30:29.069,29,false,0.443087,-0.302734,0.583557,0.609497,0.87599,-0.448493,-0.145876,-0.045471,0.001464,0.055107
1722054629.1012,2024-07-26 21:30:29.101,30,false,0.442919,-0.302734,0.583557,0.609619,0.87599,-0.448493,-0.145876,-0.045465,0.001415,0.055053
1722054629.1324,2024-07-26 21:30:29.132,31,false,0.442923,-0.302734,0.583618,0.609558,0.87599,-0.448493,-0.145876,-0.045459,0.001371,0.055004
1722054629.1637,2024-07-26 21:30:29.163,0,false,0.442919,-0.302734,0.583557,0.609619,0.884779,-0.442145,-0.138552,-0.045528,0.001381,0.055094
1722054629.1949,2024-07-26 21:30:29.194,1,false,0.442878,-0.302795,0.583557,0.609619,0.883803,-0.456794,-0.132692,-0.045553,0.001462,0.055103
1722054629.2262,2024-07-26 21:30:29.226,2,false,0.442748,-0.302856,0.583496,0.609741,0.883803,-0.456794,-0.132692,-0.045575,0.001536,0.05511
1722054629.2574,2024-07-26 21:30:29.257,3,false,0.442787,-0.30304,0.583435,0.60968,0.87892,-0.442634,-0.142458,-0.045681,0.001541,0.055141
1722054629.2887,2024-07-26 21:30:29.288,4,false,0.442707,-0.303162,0.583496,0.609619,0.880873,-0.444587,-0.126833,-0.045727,0.001558,0.055035
1722054629.3199,2024-07-26 21:30:29.319,5,false,0.442581,-0.303101,0.583496,0.609741,0.880873,-0.444587,-0.126833,-0.045683,0.001549,0.055025
1722054629.3512,2024-07-26 21:30:29.351,6,false,0.442501,-0.303101,0.583557,0.609741,0.873549,-0.451911,-0.145388,-0.045668,0.001601,0.054991
1722054629.3824,2024-07-26 21:30:29.382,7,false,0.442416,-0.303101,0.583557,0.609802,0.875502,-0.448005,-0.14197,-0.045703,0.001575,0.05501
1722054629.4137,2024-07-26 21:30:29.413,8,false,0.442413,-0.303101,0.583496,0.609863,0.875502,-0.448005,-0.14197,-0.045735,0.001552,0.055026
1722054629.4449,2024-07-26 21:30:29.444,9,false,0.442255,-0.302979,0.583679,0.609863,0.872572,-0.441169,-0.139528,-0.045691,0.001568,0.055053
1722054629.4762,2024-07-26 21:30:29.476,10,false,0.442216,-0.302917,0.58374,0.609863,0.876967,-0.435798,-0.1449,-0.04565,0.001643,0.055017
1722054629.5074,2024-07-26 21:30:29.507,11,false,0.442413,-0.303101,0.583496,0.609863,0.873549,-0.451911,-0.145388,-0.045675,0.001625,0.055009
1722054629.5387,2024-07-26 21:30:29.538,12,false,0.442048,-0.302917,0.58374,0.609985,0.872084,-0.449958,-0.130251,-0.045698,0.001609,0.055001
1722054629.5699,2024-07-26 21:30:29.569,13,false,0.442048,-0.302917,0.58374,0.609985,0.887709,-0.452399,-0.137087,-0.045706,0.001705,0.055018
1722054629.6012,2024-07-26 21:30:29.601,14,false,0.442128,-0.302917,0.583679,0.609985,0.87013,-0.439216,-0.132204,-0.045713,0.001693,0.055034
1722054629.6324,2024-07-26 21:30:29.632,15,false,0.442461,-0.302795,0.583618,0.609863,0.87013,-0.439216,-0.132204,-0.045719,0.001682,0.055049
1722054629.6637,2024-07-26 21:30:29.663,16,false,0.442583,-0.302734,0.583557,0.609863,0.89015,-0.429938,-0.12488,-0.045798,0.001624,0.055037
1722054629.6949,2024-07-26 21:30:29.694,17,false,0.442587,-0.302734,0.583618,0.609802,0.876478,-0.42652,-0.135622,-0.045747,0.001669,0.055026
1722054629.7262,2024-07-26 21:30:29.726,18,false,0.442587,-0.302856,0.583618,0.609741,0.876478,-0.42652,-0.135622,-0.04575,0.001819,0.055005
1722054629.7574,2024-07-26 21:30:29.757,19,false,0.442581,-0.302979,0.583496,0.609802,0.886732,-0.442145,-0.138064,-0.045765,0.001992,0.054998
1722054629.7887,2024-07-26 21:30:29.788,20,false,0.442622,-0.302795,0.583496,0.609863,0.879896,-0.440192,-0.129274,-0.045693,0.00189,0.054918
1722054629.8199,2024-07-26 21:30:29.819,21,false,0.442576,-0.302734,0.583435,0.609985,0.879896,-0.440192,-0.129274,-0.045628,0.001799,0.054846
1722054629.8512,2024-07-26 21:30:29.851,22,false,0.442664,-0.302246,0.583557,0.610046,0.879896,-0.440192,-0.129274,-0.04557,0.001716,0.054781
1722054629.8824,2024-07-26 21:30:29.882,23,false,0.442787,-0.302185,0.583496,0.610046,0.884779,-0.436774,-0.137087,-0.045749,0.001679,0.054821
1722054629.9137,2024-07-26 21:30:29.913,24,false,0.442738,-0.302246,0.583374,0.610168,0.880873,-0.442145,-0.143435,-0.045642,0.001719,0.054893
1722054629.9449,2024-07-26 21:30:29.944,25,false,0.442695,-0.302185,0.583374,0.610229,0.880873,-0.442145,-0.143435,-0.045582,0.001864,0.054946
1722054629.9762,2024-07-26 21:30:29.976,26,false,0.442741,-0.302246,0.583435,0.610107,0.876967,-0.438239,-0.131228,-0.045492,0.001788,0.055042
1722054630.0074,2024-07-26 21:30:30.007,27,false,0.442787,-0.302307,0.583496,0.609985,0.880385,-0.454841,-0.129763,-0.045582,0.001682,0.055056
1722054630.0387,2024-07-26 21:30:30.038,28,false,0.442612,-0.302429,0.583374,0.610168,0.880385,-0.454841,-0.129763,-0.045662,0.001587,0.055068
1722054630.0699,2024-07-26 21:30:30.069,29,false,0.442566,-0.302368,0.583313,0.610291,0.876478,-0.44947,-0.133669,-0.045686,0.001636,0.055152
1722054630.1012,2024-07-26 21:30:30.101,30,false,0.44265,-0.302368,0.583313,0.610229,0.896498,-0.434821,-0.13904,-0.045646,0.00168,0.05513
1722054630.1324,2024-07-26 21:30:30.132,31,false,0.442619,-0.302307,0.583496,0.610107,0.896498,-0.434821,-0.13904,-0.045732,0.001658,0.055086
1722054630.1637,2024-07-26 21:30:30.163,0,false,0.442492,-0.302246,0.583496,0.610229,0.878431,-0.440681,-0.12781,-0.045737,0.001712,0.055156
1722054630.1949,2024-07-26 21:30:30.194,1,false,0.442282,-0.302307,0.583496,0.610352,0.871595,-0.439704,-0.123903,-0.045753,0.001627,0.055085
1722054630.2262,2024-07-26 21:30:30.226,2,false,0.442118,-0.302429,0.583557,0.610352,0.871595,-0.439704,-0.123903,-0.045646,0.001635,0.055106
1722054630.2574,2024-07-26 21:30:30.257,3,false,0.442492,-0.302246,0.583496,0.610229,0.877943,-0.441657,-0.137087,-0.045622,0.001606,0.055284
1722054630.2887,2024-07-26 21:30:30.288,4,false,0.442156,-0.302368,0.583496,0.610413,0.877943,-0.441657,-0.137087,-0.045613,0.001616,0.05531
1722054630.3199,2024-07-26 21:30:30.319,5,false,0.44195,-0.302429,0.583557,0.610474,0.877943,-0.44361,-0.139528,-0.045642,0.001662,0.05537
1722054630.3512,2024-07-26 21:30:30.351,6,false,0.442038,-0.302429,0.583618,0.610352,0.872084,-0.448981,-0.131228,-0.045607,0.001606,0.055448
1722054630.3824,2024-07-26 21:30:30.382,7,false,0.44216,-0.302368,0.583557,0.610352,0.872084,-0.448981,-0.131228,-0.045575,0.001555,0.055519
1722054630.4137,2024-07-26 21:30:30.413,8,false,0.442238,-0.302612,0.583435,0.610291,0.881849,-0.443122,-0.14197,-0.045485,0.00157,0.055411
1722054630.4449,2024-07-26 21:30:30.444,9,false,0.442401,-0.302856,0.583313,0.610168,0.885267,-0.434333,-0.139528,-0.045441,0.001548,0.055327
1722054630.4762,2024-07-26 21:30:30.476,10,false,0.442562,-0.302979,0.583191,0.610107,0.885267,-0.434333,-0.139528,-0.045401,0.001527,0.055251
1722054630.5074,2024-07-26 21:30:30.507,11,false,0.442685,-0.30304,0.58313,0.610046,0.880385,-0.445075,-0.135134,-0.045354,0.001582,0.055317
1722054630.5387,2024-07-26 21:30:30.538,12,false,0.44272,-0.303223,0.583008,0.610046,0.885756,-0.439704,-0.137575,-0.045359,0.001497,0.055242
1722054630.5699,2024-07-26 21:30:30.569,13,false,0.442847,-0.303284,0.583008,0.609924,0.885756,-0.439704,-0.137575,-0.045364,0.00142,0.055174
1722054630.6012,2024-07-26 21:30:30.601,14,false,0.442767,-0.303406,0.583069,0.609863,0.896498,-0.436774,-0.135622,-0.045381,0.001486,0.055186
1722054630.6324,2024-07-26 21:30:30.632,15,false,0.442347,-0.30365,0.583069,0.610046,0.888685,-0.431403,-0.134157,-0.045457,0.001508,0.055076
1722054630.6637,2024-07-26 21:30:30.663,16,false,0.442228,-0.303589,0.583191,0.610046,0.877943,-0.424567,-0.138064,-0.045502,0.001382,0.054915
1722054630.6949,2024-07-26 21:30:30.694,17,false,0.44228,-0.303406,0.583374,0.609924,0.884779,-0.43238,-0.139528,-0.045456,0.001341,0.055002
1722054630.7262,2024-07-26 21:30:30.726,18,false,0.442613,-0.303284,0.583313,0.609802,0.881361,-0.454353,-0.131228,-0.045403,0.001378,0.054971
1722054630.7574,2024-07-26 21:30:30.757,19,false,0.442613,-0.303284,0.583313,0.609802,0.881361,-0.454353,-0.131228,-0.045355,0.001411,0.054942
1722054630.7887,2024-07-26 21:30:30.788,20,false,0.442655,-0.303345,0.583313,0.609741,0.875013,-0.439704,-0.123415,-0.045469,0.001417,0.055002
1722054630.8199,2024-07-26 21:30:30.819,21,false,0.442733,-0.303589,0.583191,0.60968,0.882826,-0.448981,-0.143923,-0.045501,0.001373,0.054983
1722054630.8512,2024-07-26 21:30:30.851,22,false,0.442898,-0.303833,0.58313,0.609497,0.882826,-0.448981,-0.143923,-0.045528,0.001333,0.054966
1722054630.8824,2024-07-26 21:30:30.882,23,false,0.442898,-0.303955,0.58313,0.609436,0.871595,-0.44361,-0.138552,-0.04559,0.001407,0.054853
1722054630.9137,2024-07-26 21:30:30.913,24,false,0.443104,-0.304016,0.583069,0.609314,0.884291,-0.442634,-0.137087,-0.04567,0.001425,0.054971
1722054630.9449,2024-07-26 21:30:30.944,25,false,0.443311,-0.304199,0.583008,0.609131,0.884291,-0.442634,-0.137087,-0.045741,0.001441,0.055077
1722054630.9762,2024-07-26 21:30:30.976,26,false,0.443269,-0.304382,0.583008,0.60907,0.883314,-0.437263,-0.130739,-0.045708,0.001493,0.05505
1722054631.0074,2024-07-26 21:30:31.007,27,false,0.44344,-0.304382,0.583069,0.608887,0.880385,-0.433356,-0.133669,-0.045605,0.00149,0.055038
1722054631.0387,2024-07-26 21:30:31.038,28,false,0.443311,-0.304199,0.583008,0.609131,0.871595,-0.44361,-0.138552,-0.045598,0.001512,0.054979
1722054631.0699,2024-07-26 21:30:31.069,29,false,0.443356,-0.304504,0.583069,0.608887,0.890639,-0.437751,-0.137575,-0.045579,0.001556,0.054938
1722054631.1012,2024-07-26 21:30:31.101,30,false,0.443436,-0.304626,0.583008,0.608826,0.882826,-0.433356,-0.140505,-0.045563,0.001596,0.054986
1722054631.1324,2024-07-26 21:30:31.132,31,false,0.443433,-0.304626,0.582947,0.608887,0.89015,-0.427985,-0.125368,-0.045547,0.001534,0.055029
1722054631.1637,2024-07-26 21:30:31.163,0,false,0.443353,-0.304626,0.583008,0.608887,0.89015,-0.427985,-0.125368,-0.045534,0.001478,0.055069
1722054631.1949,2024-07-26 21:30:31.194,1,false,0.443066,-0.304688,0.58313,0.608948,0.881849,-0.436774,-0.13611,-0.045595,0.001477,0.055055
1722054631.2262,2024-07-26 21:30:31.226,2,false,0.443234,-0.304565,0.58313,0.608887,0.885267,-0.456306,-0.13611,-0.045637,0.001488,0.055092
1722054631.2574,2024-07-26 21:30:31.257,3,false,0.443318,-0.304565,0.58313,0.608826,0.885267,-0.456306,-0.13611,-0.045615,0.001437,0.055124
1722054631.2887,2024-07-26 21:30:31.288,4,false,0.44352,-0.304626,0.583008,0.608765,0.877455,-0.445563,-0.141482,-0.045558,0.001452,0.055154
1722054631.3199,2024-07-26 21:30:31.319,5,false,0.44344,-0.304749,0.583069,0.608704,0.883803,-0.442145,-0.133669,-0.04558,0.001465,0.055156
1722054631.3512,2024-07-26 21:30:31.351,6,false,0.443398,-0.30481,0.583069,0.608704,0.883803,-0.442145,-0.133669,-0.045612,0.001587,0.055195
1722054631.3824,2024-07-26 21:30:31.382,7,false,0.443447,-0.304749,0.583191,0.608582,0.886732,-0.437263,-0.137575,-0.045591,0.001624,0.055254
1722054631.4137,2024-07-26 21:30:31.413,8,false,0.443517,-0.304749,0.582947,0.608765,0.886244,-0.418219,-0.133181,-0.045671,0.001498,0.055149
1722054631.4449,2024-07-26 21:30:31.444,9,false,0.443436,-0.304749,0.583008,0.608765,0.891127,-0.42652,-0.126833,-0.045535,0.001641,0.055225
1722054631.4762,2024-07-26 21:30:31.476,10,false,0.443475,-0.304688,0.582947,0.608826,0.881361,-0.444099,-0.14197,-0.045572,0.001624,0.055196
1722054631.5074,2024-07-26 21:30:31.507,11,false,0.443394,-0.30481,0.583008,0.608765,0.880385,-0.433356,-0.130251,-0.045519,0.00162,0.055218
1722054631.5387,2024-07-26 21:30:31.538,12,false,0.443394,-0.30481,0.583008,0.608765,0.880385,-0.433356,-0.130251,-0.045471,0.001617,0.055238
1722054631.5699,2024-07-26 21:30:31.569,13,false,0.443394,-0.30481,0.583008,0.608765,0.878431,-0.440192,-0.132204,-0.045563,0.001589,0.05511
1722054631.6012,2024-07-26 21:30:31.601,14,false,0.443387,-0.304932,0.582886,0.608826,0.878431,-0.434821,-0.133669,-0.045621,0.001662,0.055092
1722054631.6324,2024-07-26 21:30:31.632,15,false,0.443632,-0.30481,0.582764,0.608826,0.878431,-0.434821,-0.133669,-0.045673,0.001728,0.055076
1722054631.6637,2024-07-26 21:30:31.663,16,false,0.443513,-0.304871,0.582886,0.608765,0.887709,-0.433845,-0.129274,-0.045708,0.001714,0.05505
1722054631.6949,2024-07-26 21:30:31.694,17,false,0.443558,-0.30481,0.582947,0.608704,0.881361,-0.44654,-0.138064,-0.045678,0.001616,0.055148
1722054631.7262,2024-07-26 21:30:31.726,18,false,0.443681,-0.304749,0.582886,0.608704,0.881361,-0.44654,-0.138064,-0.045652,0.001527,0.055236
1722054631.7574,2024-07-26 21:30:31.757,19,false,0.443722,-0.304688,0.582886,0.608704,0.889174,-0.448005,-0.131716,-0.045554,0.001546,0.055242
1722054631.7887,2024-07-26 21:30:31.788,20,false,0.443761,-0.304626,0.582825,0.608765,0.882826,-0.446052,-0.131228,-0.045491,0.001562,0.055211
1722054631.8199,2024-07-26 21:30:31.819,21,false,0.443681,-0.304749,0.582886,0.608704,0.887709,-0.433845,-0.129274,-0.045422,0.001564,0.055208
1722054631.8512,2024-07-26 21:30:31.851,22,false,0.443803,-0.304565,0.582825,0.608765,0.886244,-0.441169,-0.141482,-0.04536,0.001567,0.055205
1722054631.8824,2024-07-26 21:30:31.882,23,false,0.443761,-0.304749,0.582825,0.608704,0.884779,-0.448493,-0.140017,-0.045402,0.00163,0.055263
1722054631.9137,2024-07-26 21:30:31.913,24,false,0.443841,-0.304749,0.582764,0.608704,0.885756,-0.435309,-0.135134,-0.045415,0.001699,0.055267
1722054631.9449,2024-07-26 21:30:31.944,25,false,0.443837,-0.304749,0.582703,0.608765,0.885756,-0.435309,-0.135134,-0.045427,0.001761,0.05527
1722054631.9762,2024-07-26 21:30:31.976,26,false,0.444119,-0.304688,0.58252,0.608765,0.879896,-0.438239,-0.140993,-0.045462,0.001719,0.055285
1722054632.0074,2024-07-26 21:30:32.007,27,false,0.444039,-0.304688,0.582581,0.608765,0.877455,-0.445563,-0.138552,-0.045518,0.001828,0.055274
1722054632.0387,2024-07-26 21:30:32.038,28,false,0.444078,-0.304749,0.58252,0.608765,0.877455,-0.445563,-0.138552,-0.045507,0.002023,0.055325
1722054632.0699,2024-07-26 21:30:32.069,29,false,0.444245,-0.304749,0.58252,0.608643,0.884291,-0.449958,-0.139528,-0.045607,0.002114,0.055262
1722054632.1012,2024-07-26 21:30:32.101,30,false,0.444328,-0.304871,0.58252,0.608521,0.883803,-0.434821,-0.137087,-0.045575,0.002171,0.055204
1722054632.1324,2024-07-26 21:30:32.132,31,false,0.44445,-0.304932,0.582458,0.608459,0.883803,-0.434821,-0.137087,-0.045596,0.002174,0.055043
1722054632.1637,2024-07-26 21:30:32.163,0,false,0.44462,-0.305298,0.58252,0.608093,0.883803,-0.434821,-0.137087,-0.045614,0.002176,0.054898
1722054632.1949,2024-07-26 21:30:32.194,1,false,0.444491,-0.305481,0.582458,0.608154,0.883314,-0.432868,-0.133181,-0.045606,0.002313,0.054938
1722054632.2262,2024-07-26 21:30:32.226,2,false,0.444445,-0.305542,0.582397,0.608215,0.89601,-0.431891,-0.129763,-0.045586,0.002338,0.055132
1722054632.2574,2024-07-26 21:30:32.257,3,false,0.444362,-0.305542,0.582397,0.608276,0.89601,-0.431891,-0.129763,-0.045569,0.00236,0.055308
1722054632.2887,2024-07-26 21:30:32.288,4,false,0.444567,-0.305603,0.582336,0.608154,0.881361,-0.436286,-0.122927,-0.04565,0.002283,0.055356
1722054632.3199,2024-07-26 21:30:32.319,5,false,0.444692,-0.305542,0.582336,0.608093,0.883314,-0.440192,-0.124392,-0.045614,0.002201,0.05535
1722054632.3512,2024-07-26 21:30:32.351,6,false,0.444609,-0.305542,0.582336,0.608154,0.883314,-0.440192,-0.124392,-0.045582,0.002127,0.055345
1722054632.3824,2024-07-26 21:30:32.382,7,false,0.44481,-0.305481,0.582214,0.608154,0.884779,-0.439704,-0.143923,-0.045613,0.002086,0.055304
1722054632.4137,2024-07-26 21:30:32.413,8,false,0.444806,-0.305603,0.582153,0.608154,0.883803,-0.43238,-0.130739,-0.045581,0.001987,0.055364
1722054632.4449,2024-07-26 21:30:32.444,9,false,0.444928,-0.305664,0.582092,0.608093,0.883803,-0.43238,-0.130739,-0.045552,0.001898,0.055419
1722054632.4762,2024-07-26 21:30:32.476,10,false,0.44497,-0.305603,0.582092,0.608093,0.881361,-0.437263,-0.135622,-0.045501,0.001965,0.055333
1722054632.5074,2024-07-26 21:30:32.507,11,false,0.444894,-0.305359,0.582214,0.608154,0.87599,-0.447028,-0.134646,-0.045529,0.001866,0.055318
1722054632.5387,2024-07-26 21:30:32.538,12,false,0.445096,-0.305298,0.582092,0.608154,0.87599,-0.447028,-0.134646,-0.045554,0.001777,0.055304
1722054632.5699,2024-07-26 21:30:32.569,13,false,0.44497,-0.305603,0.582092,0.608093,0.898451,-0.431891,-0.127321,-0.045551,0.001648,0.055303
1722054632.6012,2024-07-26 21:30:32.601,14,false,0.445259,-0.305176,0.582031,0.608154,0.898451,-0.431891,-0.127321,-0.04555,0.001532,0.055303
1722054632.6324,2024-07-26 21:30:32.632,15,false,0.445305,-0.305115,0.582092,0.608093,0.873549,-0.436286,-0.133181,-0.045536,0.001696,0.0554
1722054632.6637,2024-07-26 21:30:32.663,16,false,0.445305,-0.304993,0.582092,0.608154,0.877455,-0.436774,-0.124392,-0.045596,0.001673,0.055243
1722054632.6949,2024-07-26 21:30:32.694,17,false,0.445176,-0.305054,0.582031,0.608276,0.877455,-0.436774,-0.124392,-0.045651,0.001652,0.055102
1722054632.7262,2024-07-26 21:30:32.726,18,false,0.445336,-0.304932,0.581909,0.608337,0.886244,-0.433845,-0.149783,-0.0457,0.001658,0.055061
1722054632.7574,2024-07-26 21:30:32.757,19,false,0.445298,-0.304749,0.58197,0.608398,0.885267,-0.44654,-0.124392,-0.045659,0.0017,0.055109
1722054632.7887,2024-07-26 21:30:32.788,20,false,0.445302,-0.304626,0.582031,0.608398,0.885267,-0.44654,-0.124392,-0.045781,0.001798,0.055189
1722054632.8199,2024-07-26 21:30:32.819,21,false,0.445351,-0.304443,0.582153,0.608337,0.882826,-0.435798,-0.139528,-0.045732,0.001826,0.055225
1722054632.8512,2024-07-26 21:30:32.851,22,false,0.445146,-0.304382,0.582214,0.608459,0.87306,-0.435798,-0.136599,-0.0457,0.001802,0.05522
1722054632.8824,2024-07-26 21:30:32.882,23,false,0.445226,-0.304382,0.582153,0.608459,0.87306,-0.435798,-0.136599,-0.045671,0.001781,0.055215
1722054632.9137,2024-07-26 21:30:32.913,24,false,0.445423,-0.304321,0.58197,0.608521,0.880385,-0.437751,-0.131716,-0.045694,0.001749,0.055187
1722054632.9449,2024-07-26 21:30:32.944,25,false,0.445396,-0.304138,0.582214,0.608398,0.884779,-0.439704,-0.140505,-0.045665,0.001733,0.05521
1722054632.9762,2024-07-26 21:30:32.976,26,false,0.445313,-0.304138,0.582214,0.608459,0.874037,-0.441169,-0.136599,-0.045567,0.00173,0.055158
1722054633.0074,2024-07-26 21:30:33.007,27,false,0.445233,-0.304016,0.582275,0.608521,0.874525,-0.436774,-0.13904,-0.0456,0.001704,0.055172
1722054633.0387,2024-07-26 21:30:33.038,28,false,0.445233,-0.303894,0.582275,0.608582,0.889174,-0.42945,-0.12781,-0.045691,0.001582,0.055124
1722054633.0699,2024-07-26 21:30:33.069,29,false,0.445066,-0.303894,0.582275,0.608704,0.889174,-0.42945,-0.12781,-0.045773,0.001473,0.05508
1722054633.1012,2024-07-26 21:30:33.101,30,false,0.444986,-0.303772,0.582336,0.608765,0.882826,-0.450446,-0.139528,-0.045614,0.001521,0.055114
1722054633.1324,2024-07-26 21:30:33.132,31,false,0.445024,-0.303711,0.582275,0.608826,0.880873,-0.444587,-0.135134,-0.045655,0.001405,0.055182
1722054633.1637,2024-07-26 21:30:33.163,0,false,0.445031,-0.303589,0.582397,0.608765,0.880873,-0.444587,-0.135134,-0.045692,0.001302,0.055242
1722054633.1949,2024-07-26 21:30:33.194,1,false,0.444947,-0.303467,0.582397,0.608887,0.880873,-0.448005,-0.128786,-0.045664,0.001391,0.055175
1722054633.2262,2024-07-26 21:30:33.226,2,false,0.444902,-0.303406,0.582336,0.609009,0.89601,-0.448005,-0.139528,-0.045651,0.001362,0.055211
1722054633.2574,2024-07-26 21:30:33.257,3,false,0.444905,-0.303406,0.582397,0.608948,0.89601,-0.448005,-0.139528,-0.045529,0.00136,0.055269
1722054633.2887,2024-07-26 21:30:33.288,4,false,0.444871,-0.303345,0.58252,0.608887,0.888685,-0.434333,-0.137087,-0.045566,0.00137,0.055296
1722054633.3199,2024-07-26 21:30:33.319,5,false,0.444874,-0.303223,0.582581,0.608887,0.877943,-0.434333,-0.130739,-0.045673,0.001453,0.055162
1722054633.3512,2024-07-26 21:30:33.351,6,false,0.444905,-0.303406,0.582397,0.608948,0.880873,-0.448005,-0.128786,-0.045646,0.001467,0.055127
1722054633.3824,2024-07-26 21:30:33.382,7,false,0.444874,-0.303223,0.582581,0.608887,0.874525,-0.442634,-0.13611,-0.045623,0.001479,0.055095
1722054633.4137,2024-07-26 21:30:33.413,8,false,0.444958,-0.303223,0.582581,0.608826,0.886732,-0.436286,-0.131228,-0.045699,0.001404,0.055104
1722054633.4449,2024-07-26 21:30:33.444,9,false,0.444919,-0.303162,0.582642,0.608826,0.882826,-0.438239,-0.135622,-0.045658,0.001434,0.055209
1722054633.4762,2024-07-26 21:30:33.476,10,false,0.445086,-0.30304,0.582642,0.608765,0.882826,-0.438239,-0.135622,-0.045621,0.001462,0.055303
1722054633.5074,2024-07-26 21:30:33.507,11,false,0.445089,-0.30304,0.582703,0.608704,0.892592,-0.425055,-0.122927,-0.045551,0.001462,0.055242
1722054633.5387,2024-07-26 21:30:33.538,12,false,0.445208,-0.303101,0.582581,0.608704,0.888197,-0.443122,-0.132204,-0.045586,0.001548,0.055186
1722054633.5699,2024-07-26 21:30:33.569,13,false,0.445127,-0.302979,0.582642,0.608765,0.888197,-0.443122,-0.132204,-0.045617,0.001625,0.055136
1722054633.6012,2024-07-26 21:30:33.601,14,false,0.444963,-0.302734,0.582703,0.608948,0.877455,-0.42359,-0.140017,-0.045633,0.001597,0.055226
1722054633.6324,2024-07-26 21:30:33.632,15,false,0.445091,-0.302551,0.582764,0.608887,0.880873,-0.448493,-0.136599,-0.045721,0.001523,0.055111
1722054633.6637,2024-07-26 21:30:33.663,16,false,0.444969,-0.302368,0.582825,0.609009,0.880873,-0.448493,-0.136599,-0.0458,0.001456,0.055008
1722054633.6949,2024-07-26 21:30:33.694,17,false,0.44501,-0.302307,0.582825,0.609009,0.875013,-0.448981,-0.132692,-0.045822,0.001444,0.055049
1722054633.7262,2024-07-26 21:30:33.726,18,false,0.445169,-0.302185,0.582703,0.60907,0.884291,-0.449958,-0.143435,-0.045842,0.001459,0.055086
1722054633.7574,2024-07-26 21:30:33.757,19,false,0.445336,-0.302063,0.582703,0.609009,0.870619,-0.431403,-0.140993,-0.045848,0.001581,0.055132
1722054633.7887,2024-07-26 21:30:33.788,20,false,0.44518,-0.302063,0.582886,0.608948,0.87892,-0.42945,-0.12488,-0.045865,0.001582,0.055075
1722054633.8199,2024-07-26 21:30:33.819,21,false,0.445217,-0.302002,0.582825,0.609009,0.880873,-0.445075,-0.13904,-0.045807,0.00157,0.054976
1722054633.8512,2024-07-26 21:30:33.851,22,false,0.445005,-0.301941,0.582764,0.609253,0.880873,-0.445075,-0.13904,-0.045804,0.001609,0.054959
1722054633.8824,2024-07-26 21:30:33.882,23,false,0.444921,-0.301941,0.582764,0.609314,0.880385,-0.444587,-0.128298,-0.045716,0.001619,0.054956
1722054633.9137,2024-07-26 21:30:33.913,24,false,0.444882,-0.301758,0.582825,0.609375,0.874525,-0.447028,-0.1449,-0.045698,0.001628,0.055052
1722054633.9449,2024-07-26 21:30:33.944,25,false,0.444757,-0.301819,0.582825,0.609436,0.874525,-0.447028,-0.1449,-0.045791,0.00166,0.055064
1722054633.9762,2024-07-26 21:30:33.976,26,false,0.444638,-0.301758,0.582947,0.609436,0.883314,-0.444587,-0.131716,-0.045717,0.001714,0.0551
1722054634.0074,2024-07-26 21:30:34.007,27,false,0.444595,-0.301575,0.582947,0.609558,0.868666,-0.443122,-0.13904,-0.045686,0.001738,0.054985
1722054634.0387,2024-07-26 21:30:34.038,28,false,0.444588,-0.301575,0.582825,0.60968,0.868666,-0.443122,-0.13904,-0.045658,0.001759,0.054882
1722054634.0699,2024-07-26 21:30:34.069,29,false,0.444625,-0.301514,0.582764,0.609741,0.884779,-0.44361,-0.136599,-0.045707,0.001693,0.054949
1722054634.1012,2024-07-26 21:30:34.101,30,false,0.444541,-0.301392,0.582764,0.609863,0.882338,-0.448493,-0.129274,-0.045604,0.001634,0.0548
1722054634.1324,2024-07-26 21:30:34.132,31,false,0.444588,-0.301575,0.582825,0.60968,0.883314,-0.444587,-0.131716,-0.045621,0.001666,0.054801
1722054634.1637,2024-07-26 21:30:34.163,0,false,0.444502,-0.301331,0.582825,0.609863,0.889174,-0.450446,-0.134157,-0.0456,0.001597,0.054741
1722054634.1949,2024-07-26 21:30:34.194,1,false,0.444505,-0.301208,0.582886,0.609863,0.885267,-0.456306,-0.142947,-0.045691,0.001584,0.054736
1722054634.2262,2024-07-26 21:30:34.226,2,false,0.444585,-0.301208,0.582825,0.609863,0.884291,-0.442145,-0.135134,-0.045712,0.001572,0.054975
1722054634.2574,2024-07-26 21:30:34.257,3,false,0.444543,-0.30127,0.582825,0.609863,0.884291,-0.442145,-0.135134,-0.045731,0.001561,0.055191
1722054634.2887,2024-07-26 21:30:34.288,4,false,0.444623,-0.30127,0.582764,0.609863,0.876967,-0.439704,-0.140017,-0.04576,0.001625,0.05525
1722054634.3199,2024-07-26 21:30:34.319,5,false,0.444623,-0.30127,0.582764,0.609863,0.879896,-0.443122,-0.137575,-0.045688,0.001499,0.055243
1722054634.3512,2024-07-26 21:30:34.351,6,false,0.444829,-0.301331,0.582703,0.609741,0.879896,-0.443122,-0.137575,-0.045624,0.001386,0.055236
1722054634.3824,2024-07-26 21:30:34.382,7,false,0.444787,-0.30127,0.582703,0.609802,0.876967,-0.445563,-0.137575,-0.045615,0.001455,0.055243
1722054634.4137,2024-07-26 21:30:34.413,8,false,0.444912,-0.301208,0.582703,0.609741,0.87892,-0.449958,-0.140993,-0.045655,0.001468,0.055346
1722054634.4449,2024-07-26 21:30:34.444,9,false,0.444999,-0.301208,0.582764,0.609619,0.87892,-0.449958,-0.140993,-0.045692,0.00148,0.055439
1722054634.4762,2024-07-26 21:30:34.476,10,false,0.44528,-0.301147,0.582581,0.609619,0.87892,-0.449958,-0.140993,-0.045725,0.00149,0.055522
1722054634.5074,2024-07-26 21:30:34.507,11,false,0.445323,-0.301208,0.582581,0.609558,0.883803,-0.442145,-0.136599,-0.045706,0.001573,0.0555
1722054634.5387,2024-07-26 21:30:34.538,12,false,0.445532,-0.30127,0.582581,0.609375,0.874037,-0.448493,-0.141482,-0.045627,0.001685,0.055419
1722054634.5699,2024-07-26 21:30:34.569,13,false,0.445619,-0.30127,0.582642,0.609253,0.874037,-0.448493,-0.141482,-0.045557,0.001785,0.055346
1722054634.6012,2024-07-26 21:30:34.601,14,false,0.445582,-0.301453,0.582703,0.609131,0.864759,-0.429938,-0.137575,-0.045579,0.00174,0.055414
1722054634.6324,2024-07-26 21:30:34.632,15,false,0.445413,-0.301575,0.582642,0.609253,0.883314,-0.441169,-0.137087,-0.045599,0.001786,0.055354
1722054634.6637,2024-07-26 21:30:34.663,16,false,0.445405,-0.301575,0.58252,0.609375,0.883314,-0.441169,-0.137087,-0.045458,0.001827,0.055336
1722054634.6949,2024-07-26 21:30:34.694,17,false,0.445322,-0.301575,0.58252,0.609436,0.881849,-0.443122,-0.13611,-0.045453,0.00184,0.05532
1722054634.7262,2024-07-26 21:30:34.726,18,false,0.445286,-0.301392,0.582642,0.609436,0.882826,-0.444587,-0.140993,-0.045437,0.001863,0.055318
1722054634.7574,2024-07-26 21:30:34.757,19,false,0.445168,-0.301453,0.582764,0.609375,0.882826,-0.444587,-0.140993,-0.045422,0.001885,0.055316
1722054634.7887,2024-07-26 21:30:34.788,20,false,0.44513,-0.301392,0.582825,0.609375,0.882338,-0.445075,-0.132692,-0.045543,0.001891,0.055144
1722054634.8199,2024-07-26 21:30:34.819,21,false,0.445213,-0.301392,0.582825,0.609314,0.877455,-0.449958,-0.137087,-0.045591,0.001776,0.055147
1722054634.8512,2024-07-26 21:30:34.851,22,false,0.4453,-0.30127,0.582886,0.609253,0.877455,-0.449958,-0.137087,-0.045585,0.001769,0.055125
1722054634.8824,2024-07-26 21:30:34.882,23,false,0.44513,-0.301392,0.582825,0.609375,0.883803,-0.437751,-0.144411,-0.045641,0.001702,0.055082
1722054634.9137,2024-07-26 21:30:34.913,24,false,0.445379,-0.301147,0.582825,0.609314,0.883803,-0.437751,-0.144411,-0.045569,0.001703,0.055067
1722054634.9449,2024-07-26 21:30:34.944,25,false,0.44525,-0.301208,0.582764,0.609436,0.868177,-0.451911,-0.13904,-0.045541,0.001618,0.055114
1722054634.9762,2024-07-26 21:30:34.976,26,false,0.445288,-0.301147,0.582703,0.609497,0.873549,-0.445563,-0.14197,-0.045479,0.001627,0.055047
1722054635.0074,2024-07-26 21:30:35.007,27,false,0.445242,-0.301086,0.582642,0.609619,0.873549,-0.445563,-0.14197,-0.045423,0.001635,0.054987
1722054635.0387,2024-07-26 21:30:35.038,28,false,0.445241,-0.300964,0.582642,0.60968,0.885756,-0.431891,-0.138552,-0.045434,0.001679,0.055043
1722054635.0699,2024-07-26 21:30:35.069,29,false,0.445321,-0.300964,0.582581,0.60968,0.87892,-0.441169,-0.128786,-0.04542,0.00178,0.055093
1722054635.1012,2024-07-26 21:30:35.101,30,false,0.445323,-0.300842,0.582642,0.60968,0.87892,-0.441169,-0.128786,-0.045407,0.00187,0.055138
1722054635.1324,2024-07-26 21:30:35.132,31,false,0.445438,-0.300903,0.582458,0.609741,0.880873,-0.450446,-0.141482,-0.04548,0.001708,0.055068
1722054635.1637,2024-07-26 21:30:35.163,0,false,0.44548,-0.300964,0.582458,0.60968,0.886732,-0.442145,-0.134157,-0.045425,0.001708,0.055116
1722054635.1949,2024-07-26 21:30:35.194,1,false,0.445483,-0.300842,0.58252,0.60968,0.886732,-0.442145,-0.134157,-0.045484,0.00161,0.055183
1722054635.2262,2024-07-26 21:30:35.226,2,false,0.445555,-0.300842,0.582336,0.609802,0.894545,-0.448981,-0.128786,-0.045477,0.001669,0.055292
1722054635.2574,2024-07-26 21:30:35.257,3,false,0.445465,-0.300964,0.582214,0.609924,0.87599,-0.434333,-0.134157,-0.045592,0.001722,0.055305
1722054635.2887,2024-07-26 21:30:35.288,4,false,0.445546,-0.301086,0.582153,0.609863,0.87306,-0.444099,-0.137575,-0.045562,0.001696,0.055329
1722054635.3199,2024-07-26 21:30:35.319,5,false,0.445661,-0.30127,0.58197,0.609863,0.87599,-0.44361,-0.143435,-0.045547,0.001624,0.055106
1722054635.3512,2024-07-26 21:30:35.351,6,false,0.445867,-0.301331,0.581909,0.609741,0.872572,-0.448493,-0.128298,-0.045582,0.001633,0.055089
1722054635.3824,2024-07-26 21:30:35.382,7,false,0.446079,-0.30127,0.58197,0.609558,0.872572,-0.448493,-0.128298,-0.045614,0.00164,0.055073
1722054635.4137,2024-07-26 21:30:35.413,8,false,0.446168,-0.301514,0.582031,0.609314,0.891615,-0.447517,-0.134157,-0.045606,0.001684,0.055059
1722054635.4449,2024-07-26 21:30:35.444,9,false,0.446051,-0.301697,0.582153,0.609192,0.872084,-0.437263,-0.142947,-0.045647,0.001711,0.055071
1722054635.4762,2024-07-26 21:30:35.476,10,false,0.446011,-0.30188,0.582153,0.609131,0.872084,-0.437263,-0.142947,-0.045685,0.001735,0.055081
1722054635.5074,2024-07-26 21:30:35.507,11,false,0.445924,-0.30188,0.582092,0.609253,0.874525,-0.443122,-0.143923,-0.045718,0.001696,0.055091
1722054635.5387,2024-07-26 21:30:35.538,12,false,0.445885,-0.301819,0.582153,0.609253,0.883314,-0.42945,-0.130739,-0.045736,0.001697,0.055136
1722054635.5699,2024-07-26 21:30:35.569,13,false,0.44593,-0.301758,0.582214,0.609192,0.883314,-0.42945,-0.130739,-0.045753,0.001698,0.055177
1722054635.6012,2024-07-26 21:30:35.601,14,false,0.446051,-0.301697,0.582153,0.609192,0.874525,-0.435309,-0.134157,-0.045816,0.001663,0.055238
1722054635.6324,2024-07-26 21:30:35.632,15,false,0.445885,-0.301819,0.582153,0.609253,0.874525,-0.435309,-0.134157,-0.045873,0.001631,0.055293
1722054635.6637,2024-07-26 21:30:35.663,16,false,0.446211,-0.301697,0.582031,0.609192,0.885756,-0.450446,-0.13611,-0.045864,0.001565,0.05522
1722054635.6949,2024-07-26 21:30:35.694,17,false,0.446086,-0.301758,0.582031,0.609253,0.880873,-0.440192,-0.132692,-0.045892,0.001616,0.055313
1722054635.7262,2024-07-26 21:30:35.726,18,false,0.446336,-0.301758,0.582031,0.60907,0.880873,-0.440192,-0.132692,-0.045917,0.001662,0.055397
1722054635.7574,2024-07-26 21:30:35.757,19,false,0.446499,-0.301758,0.58197,0.609009,0.87013,-0.437751,-0.133669,-0.045927,0.001655,0.055375
1722054635.7887,2024-07-26 21:30:35.788,20,false,0.446662,-0.30188,0.581909,0.608887,0.886732,-0.44361,-0.137087,-0.045766,0.001697,0.055392
1722054635.8199,2024-07-26 21:30:35.819,21,false,0.446863,-0.301941,0.581787,0.608826,0.886732,-0.44361,-0.137087,-0.04562,0.001735,0.055407
1722054635.8512,2024-07-26 21:30:35.851,22,false,0.446988,-0.302002,0.581787,0.608704,0.883314,-0.441169,-0.138552,-0.045599,0.00172,0.055445
1722054635.8824,2024-07-26 21:30:35.882,23,false,0.447237,-0.302002,0.581787,0.608521,0.869642,-0.435309,-0.147341,-0.045617,0.001829,0.055296
1722054635.9137,2024-07-26 21:30:35.913,24,false,0.447404,-0.302002,0.581787,0.608398,0.869642,-0.435309,-0.147341,-0.045645,0.001939,0.055174
1722054635.9449,2024-07-26 21:30:35.944,25,false,0.447325,-0.302124,0.581848,0.608337,0.877455,-0.442634,-0.140993,-0.04561,0.001855,0.055065
1722054635.9762,2024-07-26 21:30:35.976,26,false,0.447442,-0.302185,0.581726,0.608337,0.879408,-0.42945,-0.144411,-0.045578,0.001718,0.055174
1722054636.0074,2024-07-26 21:30:36.007,27,false,0.447414,-0.30188,0.58197,0.608276,0.879408,-0.42945,-0.144411,-0.045549,0.001595,0.055272
1722054636.0387,2024-07-26 21:30:36.038,28,false,0.447493,-0.30188,0.581909,0.608276,0.879408,-0.42945,-0.144411,-0.045498,0.001655,0.055347
1722054636.0699,2024-07-26 21:30:36.069,29,false,0.447572,-0.30188,0.581848,0.608276,0.878431,-0.441657,-0.142947,-0.045502,0.001697,0.055367
1722054636.1012,2024-07-26 21:30:36.101,30,false,0.447728,-0.302002,0.581665,0.608276,0.882338,-0.43238,-0.138552,-0.045639,0.001613,0.055421
1722054636.1324,2024-07-26 21:30:36.132,31,false,0.447891,-0.302124,0.581604,0.608154,0.882338,-0.43238,-0.138552,-0.045604,0.001623,0.055409
1722054636.1637,2024-07-26 21:30:36.163,0,false,0.44789,-0.302002,0.581604,0.608215,0.863294,-0.440192,-0.131228,-0.045621,0.001741,0.055447
1722054636.1949,2024-07-26 21:30:36.194,1,false,0.447812,-0.302124,0.581665,0.608154,0.885756,-0.428962,-0.131716,-0.045613,0.001799,0.055347
1722054636.2262,2024-07-26 21:30:36.226,2,false,0.447902,-0.302246,0.581787,0.60791,0.885756,-0.428962,-0.131716,-0.045605,0.001851,0.055256
1722054636.2574,2024-07-26 21:30:36.257,3,false,0.447903,-0.302368,0.581787,0.607849,0.874525,-0.433845,-0.136599,-0.045573,0.001898,0.055224
1722054636.2887,2024-07-26 21:30:36.288,4,false,0.44782,-0.302368,0.581787,0.60791,0.887709,-0.42945,-0.133181,-0.045593,0.001867,0.055329
1722054636.3199,2024-07-26 21:30:36.319,5,false,0.447737,-0.302368,0.581787,0.607971,0.887709,-0.42945,-0.133181,-0.045636,0.001814,0.055375
1722054636.3512,2024-07-26 21:30:36.351,6,false,0.447578,-0.302246,0.581909,0.608032,0.883803,-0.437263,-0.1449,-0.045553,0.001767,0.055355
1722054636.3824,2024-07-26 21:30:36.382,7,false,0.44754,-0.302307,0.58197,0.607971,0.894057,-0.439216,-0.140017,-0.045526,0.001822,0.055264
1722054636.4137,2024-07-26 21:30:36.413,8,false,0.447737,-0.302368,0.581787,0.607971,0.874525,-0.433845,-0.136599,-0.045564,0.001848,0.055292
1722054636.4449,2024-07-26 21:30:36.444,9,false,0.447461,-0.302307,0.582031,0.607971,0.89015,-0.430915,-0.140017,-0.045597,0.00187,0.055317
1722054636.4762,2024-07-26 21:30:36.476,10,false,0.44754,-0.302307,0.58197,0.607971,0.879408,-0.431891,-0.129763,-0.045578,0.001879,0.055388
1722054636.5074,2024-07-26 21:30:36.507,11,false,0.447536,-0.302307,0.581909,0.608032,0.887221,-0.428962,-0.142458,-0.045672,0.001862,0.055404
1722054636.5387,2024-07-26 21:30:36.538,12,false,0.447623,-0.302429,0.58197,0.607849,0.887221,-0.428962,-0.142458,-0.045682,0.001773,0.055344
1722054636.5699,2024-07-26 21:30:36.569,13,false,0.447665,-0.30249,0.58197,0.607788,0.890639,-0.436286,-0.133181,-0.045814,0.00173,0.055413
1722054636.6012,2024-07-26 21:30:36.601,14,false,0.447748,-0.30249,0.58197,0.607727,0.886244,-0.444587,-0.132692,-0.045761,0.001704,0.055365
1722054636.6324,2024-07-26 21:30:36.632,15,false,0.447868,-0.302429,0.581909,0.607727,0.886244,-0.444587,-0.132692,-0.045714,0.00168,0.055322
1722054636.6637,2024-07-26 21:30:36.663,16,false,0.447982,-0.30249,0.581726,0.607788,0.887221,-0.437263,-0.133181,-0.04583,0.001719,0.055319
1722054636.6949,2024-07-26 21:30:36.694,17,false,0.448148,-0.30249,0.581726,0.607666,0.890639,-0.434821,-0.131716,-0.045739,0.001694,0.055317
1722054636.7262,2024-07-26 21:30:36.726,18,false,0.448027,-0.302551,0.581787,0.607666,0.890639,-0.434821,-0.131716,-0.045658,0.001671,0.055316
1722054636.7574,2024-07-26 21:30:36.757,19,false,0.448027,-0.302551,0.581787,0.607666,0.89601,-0.430426,-0.13611,-0.045596,0.001602,0.055265
1722054636.7887,2024-07-26 21:30:36.788,20,false,0.448034,-0.302307,0.581909,0.607666,0.891615,-0.435309,-0.128298,-0.045675,0.001759,0.055342
1722054636.8199,2024-07-26 21:30:36.819,21,false,0.447996,-0.302246,0.58197,0.607666,0.885756,-0.429938,-0.130739,-0.045649,0.001742,0.055386
1722054636.8512,2024-07-26 21:30:36.851,22,false,0.44803,-0.302307,0.581848,0.607727,0.889174,-0.440681,-0.135622,-0.045613,0.001714,0.055438
1722054636.8824,2024-07-26 21:30:36.882,23,false,0.44811,-0.302429,0.581787,0.607666,0.892103,-0.445075,-0.146853,-0.04569,0.001677,0.055412
1722054636.9137,2024-07-26 21:30:36.913,24,false,0.448193,-0.302551,0.581787,0.607544,0.892103,-0.445075,-0.146853,-0.04576,0.001643,0.055389
1722054636.9449,2024-07-26 21:30:36.944,25,false,0.44832,-0.30249,0.581848,0.607422,0.882826,-0.44947,-0.128786,-0.045664,0.001577,0.055429
1722054636.9762,2024-07-26 21:30:36.976,26,false,0.44832,-0.30249,0.581848,0.607422,0.881361,-0.422614,-0.128786,-0.045749,0.001566,0.055501
1722054637.0074,2024-07-26 21:30:37.007,27,false,0.44812,-0.302429,0.58197,0.607483,0.881361,-0.422614,-0.128786,-0.045752,0.001568,0.055346
1722054637.0387,2024-07-26 21:30:37.038,28,false,0.447999,-0.302368,0.582031,0.607544,0.886732,-0.428962,-0.129274,-0.045656,0.001631,0.055391
1722054637.0699,2024-07-26 21:30:37.069,29,false,0.447879,-0.302307,0.582092,0.607605,0.876967,-0.437263,-0.132692,-0.045644,0.001614,0.055381
1722054637.1012,2024-07-26 21:30:37.101,30,false,0.447713,-0.302307,0.582092,0.607727,0.876967,-0.437263,-0.132692,-0.045633,0.001599,0.055373
1722054637.1324,2024-07-26 21:30:37.132,31,false,0.447677,-0.302002,0.582214,0.607788,0.874525,-0.435798,-0.142947,-0.045672,0.001598,0.055378
1722054637.1637,2024-07-26 21:30:37.163,0,false,0.447718,-0.301941,0.582214,0.607788,0.886732,-0.441169,-0.138552,-0.045646,0.001536,0.055358
1722054637.1949,2024-07-26 21:30:37.194,1,false,0.447713,-0.302307,0.582092,0.607727,0.886732,-0.428962,-0.129274,-0.045586,0.001602,0.055364
1722054637.2262,2024-07-26 21:30:37.226,2,false,0.447756,-0.30188,0.582153,0.607849,0.87306,-0.438239,-0.140017,-0.045531,0.001661,0.05537
1722054637.2574,2024-07-26 21:30:37.257,3,false,0.447758,-0.301636,0.582214,0.60791,0.878431,-0.436286,-0.133181,-0.045483,0.001691,0.05535
1722054637.2887,2024-07-26 21:30:37.288,4,false,0.447879,-0.301575,0.582153,0.60791,0.888197,-0.432868,-0.144411,-0.045439,0.001717,0.055357
1722054637.3199,2024-07-26 21:30:37.319,5,false,0.447875,-0.301575,0.582092,0.607971,0.888197,-0.432868,-0.144411,-0.045509,0.001631,0.055205
1722054637.3512,2024-07-26 21:30:37.351,6,false,0.447796,-0.301575,0.582153,0.607971,0.883803,-0.442145,-0.129763,-0.045561,0.001663,0.055202
1722054637.3824,2024-07-26 21:30:37.382,7,false,0.447958,-0.301575,0.582092,0.60791,0.880385,-0.426032,-0.136599,-0.045655,0.001704,0.055175
1722054637.4137,2024-07-26 21:30:37.413,8,false,0.447999,-0.301514,0.582092,0.60791,0.880385,-0.426032,-0.136599,-0.045741,0.001741,0.055151
1722054637.4449,2024-07-26 21:30:37.444,9,false,0.448122,-0.301331,0.582092,0.60791,0.877943,-0.441169,-0.131228,-0.045708,0.001762,0.055056
1722054637.4762,2024-07-26 21:30:37.476,10,false,0.448125,-0.301208,0.582153,0.60791,0.899916,-0.442634,-0.135622,-0.04569,0.001794,0.055141
1722054637.5074,2024-07-26 21:30:37.507,11,false,0.448053,-0.301208,0.582336,0.607788,0.899916,-0.442634,-0.135622,-0.045675,0.001822,0.055218
1722054637.5387,2024-07-26 21:30:37.538,12,false,0.447594,-0.30127,0.582275,0.608154,0.899916,-0.442634,-0.135622,-0.04566,0.001847,0.055287
1722054637.5699,2024-07-26 21:30:37.569,13,false,0.447352,-0.30127,0.582397,0.608215,0.884291,-0.447028,-0.134646,-0.045672,0.001736,0.055386
1722054637.6012,2024-07-26 21:30:37.601,14,false,0.447234,-0.301208,0.58252,0.608215,0.87013,-0.439704,-0.128786,-0.045707,0.001721,0.05545
1722054637.6324,2024-07-26 21:30:37.632,15,false,0.447151,-0.301208,0.58252,0.608276,0.87013,-0.439704,-0.128786,-0.04569,0.001659,0.055399
1722054637.6637,2024-07-26 21:30:37.663,16,false,0.447186,-0.30127,0.582397,0.608337,0.880873,-0.434333,-0.13904,-0.045759,0.001627,0.055315
1722054637.6949,2024-07-26 21:30:37.694,17,false,0.447225,-0.301331,0.582336,0.608337,0.879896,-0.437263,-0.136599,-0.045834,0.001635,0.055314
1722054637.7262,2024-07-26 21:30:37.726,18,false,0.44739,-0.301208,0.582336,0.608276,0.879896,-0.437263,-0.136599,-0.045902,0.001643,0.055312
1722054637.7574,2024-07-26 21:30:37.757,19,false,0.447358,-0.301025,0.58252,0.608215,0.885267,-0.438239,-0.13904,-0.046024,0.001771,0.05525
1722054637.7887,2024-07-26 21:30:37.788,20,false,0.447481,-0.300842,0.58252,0.608215,0.884779,-0.448493,-0.135622,-0.04595,0.001765,0.055401
1722054637.8199,2024-07-26 21:30:37.819,21,false,0.447571,-0.300842,0.582642,0.608032,0.884779,-0.448493,-0.135622,-0.045884,0.001759,0.055537
1722054637.8512,2024-07-26 21:30:37.851,22,false,0.447408,-0.300842,0.582703,0.608093,0.888197,-0.427985,-0.133669,-0.0458,0.001742,0.055501
1722054637.8824,2024-07-26 21:30:37.882,23,false,0.447086,-0.30072,0.582886,0.608215,0.888197,-0.431403,-0.129274,-0.045725,0.001727,0.055554
1722054637.9137,2024-07-26 21:30:37.913,24,false,0.447126,-0.300537,0.582886,0.608276,0.888197,-0.431403,-0.129274,-0.045657,0.001713,0.055602
1722054637.9449,2024-07-26 21:30:37.944,25,false,0.447408,-0.300842,0.582703,0.608093,0.878431,-0.447028,-0.137575,-0.045705,0.001749,0.055425
1722054637.9762,2024-07-26 21:30:37.976,26,false,0.447003,-0.300354,0.582947,0.608398,0.878431,-0.447028,-0.137575,-0.045749,0.001782,0.055266
1722054638.0074,2024-07-26 21:30:38.007,27,false,0.447167,-0.30011,0.582947,0.608398,0.87306,-0.442145,-0.131716,-0.045886,0.001774,0.055147
1722054638.0387,2024-07-26 21:30:38.038,28,false,0.44721,-0.299927,0.583008,0.608398,0.880385,-0.444099,-0.138552,-0.045948,0.001804,0.055187
1722054638.0699,2024-07-26 21:30:38.069,29,false,0.44725,-0.299744,0.583008,0.608459,0.880385,-0.444099,-0.138552,-0.046005,0.001832,0.055222
1722054638.1012,2024-07-26 21:30:38.101,30,false,0.447291,-0.299683,0.583008,0.608459,0.87892,-0.448981,-0.144411,-0.046006,0.001868,0.055242
1722054638.1324,2024-07-26 21:30:38.132,31,false,0.447371,-0.299683,0.582947,0.608459,0.886244,-0.439216,-0.141482,-0.045947,0.001901,0.055175
1722054638.1637,2024-07-26 21:30:38.163,0,false,0.447289,-0.299805,0.582947,0.608459,0.886244,-0.439216,-0.141482,-0.045893,0.001931,0.055114
1722054638.1949,2024-07-26 21:30:38.194,1,false,0.447293,-0.299927,0.583008,0.608337,0.882338,-0.442634,-0.145388,-0.045857,0.002031,0.055132
1722054638.2262,2024-07-26 21:30:38.226,2,false,0.447371,-0.300049,0.582886,0.608337,0.880385,-0.427497,-0.139528,-0.045849,0.002023,0.055137
1722054638.2574,2024-07-26 21:30:38.257,3,false,0.447288,-0.300049,0.582886,0.608398,0.880385,-0.427497,-0.139528,-0.045842,0.002016,0.055141
1722054638.2887,2024-07-26 21:30:38.288,4,false,0.447246,-0.299988,0.582886,0.608459,0.87892,-0.44654,-0.12781,-0.04586,0.002071,0.055205
1722054638.3199,2024-07-26 21:30:38.319,5,false,0.446966,-0.300049,0.583069,0.608459,0.886244,-0.447028,-0.135134,-0.045815,0.001961,0.055227
1722054638.3512,2024-07-26 21:30:38.351,6,false,0.446966,-0.300049,0.583069,0.608459,0.877455,-0.441169,-0.13611,-0.045897,0.001899,0.055185
1722054638.3824,2024-07-26 21:30:38.382,7,false,0.446931,-0.299988,0.583191,0.608398,0.885756,-0.447517,-0.142947,-0.04597,0.001905,0.055123
1722054638.4137,2024-07-26 21:30:38.413,8,false,0.446977,-0.299805,0.583313,0.608337,0.877455,-0.437263,-0.138552,-0.045951,0.001788,0.055153
1722054638.4449,2024-07-26 21:30:38.444,9,false,0.447026,-0.299866,0.583435,0.608154,0.877455,-0.437263,-0.138552,-0.045885,0.00178,0.055131
1722054638.4762,2024-07-26 21:30:38.476,10,false,0.446985,-0.299927,0.583435,0.608154,0.868666,-0.441169,-0.129763,-0.045935,0.00176,0.055099
1722054638.5074,2024-07-26 21:30:38.507,11,false,0.447027,-0.299988,0.583435,0.608093,0.873549,-0.445075,-0.134646,-0.045882,0.00178,0.055046
1722054638.5387,2024-07-26 21:30:38.538,12,false,0.447149,-0.300049,0.583374,0.608032,0.873549,-0.445075,-0.134646,-0.045835,0.001797,0.054998
1722054638.5699,2024-07-26 21:30:38.569,13,false,0.447311,-0.299927,0.583313,0.608032,0.876967,-0.444587,-0.133669,-0.045866,0.001703,0.055089
1722054638.6012,2024-07-26 21:30:38.601,14,false,0.447518,-0.299988,0.583313,0.607849,0.891615,-0.440192,-0.138552,-0.045857,0.001813,0.055098
1722054638.6324,2024-07-26 21:30:38.632,15,false,0.447531,-0.299866,0.583557,0.607666,0.891615,-0.440192,-0.138552,-0.045849,0.001913,0.055106
1722054638.6637,2024-07-26 21:30:38.663,16,false,0.447534,-0.299866,0.583618,0.607605,0.87892,-0.431403,-0.128786,-0.045952,0.001892,0.055149
1722054638.6949,2024-07-26 21:30:38.694,17,false,0.447533,-0.299744,0.583618,0.607666,0.885267,-0.43238,-0.130739,-0.045995,0.001801,0.055213
1722054638.7262,2024-07-26 21:30:38.726,18,false,0.447531,-0.299866,0.583557,0.607666,0.876967,-0.444587,-0.133669,-0.045998,0.001816,0.055173
1722054638.7574,2024-07-26 21:30:38.757,19,false,0.447406,-0.299805,0.583557,0.607788,0.877455,-0.423102,-0.128786,-0.046,0.00183,0.055137
1722054638.7887,2024-07-26 21:30:38.788,20,false,0.447245,-0.299683,0.583679,0.607849,0.89015,-0.445075,-0.135134,-0.0461,0.001805,0.055165
1722054638.8199,2024-07-26 21:30:38.819,21,false,0.447207,-0.299622,0.58374,0.607849,0.881361,-0.436774,-0.132692,-0.046068,0.00182,0.055191
1722054638.8512,2024-07-26 21:30:38.851,22,false,0.447254,-0.299561,0.583862,0.607727,0.881361,-0.436774,-0.132692,-0.046039,0.001833,0.055214
1722054638.8824,2024-07-26 21:30:38.882,23,false,0.447212,-0.2995,0.583862,0.607788,0.869642,-0.451911,-0.143435,-0.045903,0.001821,0.055283
1722054638.9137,2024-07-26 21:30:38.913,24,false,0.447173,-0.299438,0.583923,0.607788,0.876478,-0.440681,-0.136599,-0.045841,0.001785,0.055199
1722054638.9449,2024-07-26 21:30:38.944,25,false,0.447129,-0.2995,0.583862,0.607849,0.876478,-0.440681,-0.136599,-0.045786,0.001753,0.055124
1722054638.9762,2024-07-26 21:30:38.976,26,false,0.447173,-0.299438,0.583923,0.607788,0.884779,-0.427985,-0.137087,-0.045797,0.001688,0.055105
1722054639.0074,2024-07-26 21:30:39.007,27,false,0.447133,-0.299622,0.583923,0.607727,0.867689,-0.44361,-0.128786,-0.045795,0.001678,0.055014
1722054639.0387,2024-07-26 21:30:39.038,28,false,0.447133,-0.299622,0.583923,0.607727,0.867689,-0.44361,-0.128786,-0.04583,0.001803,0.055006
1722054639.0699,2024-07-26 21:30:39.069,29,false,0.44705,-0.299622,0.583923,0.607788,0.871595,-0.44654,-0.144411,-0.045752,0.001842,0.055084
1722054639.1012,2024-07-26 21:30:39.101,30,false,0.446928,-0.299805,0.583923,0.607788,0.889174,-0.439704,-0.132204,-0.045669,0.001866,0.055069
1722054639.1324,2024-07-26 21:30:39.132,31,false,0.447055,-0.299744,0.583984,0.607666,0.876478,-0.433845,-0.142947,-0.045643,0.001777,0.055141
1722054639.1637,2024-07-26 21:30:39.163,0,false,0.446933,-0.299683,0.584045,0.607727,0.880385,-0.440681,-0.13611,-0.045669,0.001746,0.05512
1722054639.1949,2024-07-26 21:30:39.194,1,false,0.446811,-0.299622,0.584106,0.607788,0.877943,-0.445075,-0.133669,-0.045679,0.001766,0.055089
1722054639.2262,2024-07-26 21:30:39.226,2,false,0.446648,-0.299622,0.584167,0.607849,0.877943,-0.445075,-0.133669,-0.045665,0.001797,0.055232
1722054639.2574,2024-07-26 21:30:39.257,3,false,0.446567,-0.2995,0.584229,0.60791,0.882338,-0.437263,-0.140017,-0.045652,0.001703,0.055178
1722054639.2887,2024-07-26 21:30:39.288,4,false,0.446726,-0.299377,0.584106,0.607971,0.886244,-0.438727,-0.130251,-0.045664,0.001789,0.055202
1722054639.3199,2024-07-26 21:30:39.319,5,false,0.446846,-0.299316,0.584045,0.607971,0.886244,-0.438727,-0.130251,-0.045675,0.001866,0.055224
1722054639.3512,2024-07-26 21:30:39.351,6,false,0.446929,-0.299316,0.584045,0.60791,0.877943,-0.444587,-0.13904,-0.045795,0.001851,0.055231
1722054639.3824,2024-07-26 21:30:39.382,7,false,0.446892,-0.299377,0.584106,0.607849,0.882338,-0.444099,-0.13904,-0.045757,0.0018,0.055226
1722054639.4137,2024-07-26 21:30:39.413,8,false,0.446932,-0.299561,0.584045,0.607788,0.882338,-0.444099,-0.13904,-0.045722,0.001754,0.055221
1722054639.4449,2024-07-26 21:30:39.444,9,false,0.446975,-0.299744,0.584045,0.607666,0.879896,-0.440192,-0.130251,-0.045642,0.001628,0.055314
1722054639.4762,2024-07-26 21:30:39.476,10,false,0.446892,-0.299377,0.584106,0.607849,0.879896,-0.440192,-0.130251,-0.045656,0.001538,0.0553
1722054639.5074,2024-07-26 21:30:39.507,11,false,0.446854,-0.299805,0.584106,0.607666,0.881849,-0.434821,-0.127321,-0.04568,0.001592,0.055325
1722054639.5387,2024-07-26 21:30:39.538,12,false,0.44681,-0.299866,0.584045,0.607727,0.880873,-0.442145,-0.13611,-0.045617,0.001652,0.055334
1722054639.5699,2024-07-26 21:30:39.569,13,false,0.446765,-0.299805,0.583984,0.607849,0.880873,-0.442145,-0.13611,-0.045559,0.001707,0.055343
1722054639.6012,2024-07-26 21:30:39.601,14,false,0.446727,-0.299866,0.584045,0.607788,0.889174,-0.44361,-0.127321,-0.045484,0.00167,0.055229
1722054639.6324,2024-07-26 21:30:39.632,15,false,0.446771,-0.299805,0.584106,0.607727,0.871595,-0.44654,-0.129763,-0.045525,0.00165,0.055199
1722054639.6637,2024-07-26 21:30:39.663,16,false,0.446807,-0.299866,0.583984,0.607788,0.871595,-0.44654,-0.129763,-0.045562,0.001631,0.055172
1722054639.6949,2024-07-26 21:30:39.694,17,false,0.446804,-0.299866,0.583923,0.607849,0.870619,-0.433356,-0.120485,-0.045657,0.001578,0.055124
1722054639.7262,2024-07-26 21:30:39.726,18,false,0.446842,-0.299927,0.583862,0.607849,0.87306,-0.448981,-0.141482,-0.045694,0.00164,0.055032
1722054639.7574,2024-07-26 21:30:39.757,19,false,0.446846,-0.299927,0.583923,0.607788,0.87306,-0.448981,-0.141482,-0.045739,0.001708,0.054997
1722054639.7887,2024-07-26 21:30:39.788,20,false,0.446929,-0.299927,0.583923,0.607727,0.878431,-0.441657,-0.147829,-0.045816,0.001708,0.055088
1722054639.8199,2024-07-26 21:30:39.819,21,false,0.446929,-0.299927,0.583923,0.607727,0.871107,-0.448981,-0.139528,-0.045726,0.001769,0.055048
1722054639.8512,2024-07-26 21:30:39.851,22,false,0.447089,-0.300049,0.583801,0.607666,0.871107,-0.448981,-0.139528,-0.045646,0.001824,0.055012
1722054639.8824,2024-07-26 21:30:39.882,23,false,0.447297,-0.30011,0.583801,0.607483,0.871107,-0.448981,-0.139528,-0.045574,0.001874,0.05498
1722054639.9137,2024-07-26 21:30:39.913,24,false,0.447256,-0.300171,0.583801,0.607483,0.877455,-0.447517,-0.140993,-0.045679,0.001821,0.054902
1722054639.9449,2024-07-26 21:30:39.944,25,false,0.447292,-0.300232,0.583679,0.607544,0.887709,-0.437751,-0.135622,-0.045689,0.001773,0.054868
1722054639.9762,2024-07-26 21:30:39.976,26,false,0.447292,-0.300232,0.583679,0.607544,0.887709,-0.437751,-0.135622,-0.04571,0.001766,0.05485
1722054640.0074,2024-07-26 21:30:40.007,27,false,0.447288,-0.300232,0.583618,0.607605,0.87599,-0.431891,-0.135622,-0.045717,0.001687,0.054846
1722054640.0387,2024-07-26 21:30:40.038,28,false,0.447209,-0.300232,0.583679,0.607605,0.880385,-0.438727,-0.138552,-0.045723,0.001714,0.054904
1722054640.0699,2024-07-26 21:30:40.069,29,false,0.447171,-0.300293,0.58374,0.607544,0.880385,-0.438727,-0.138552,-0.045728,0.001738,0.054956
1722054640.1012,2024-07-26 21:30:40.101,30,false,0.447245,-0.300415,0.583557,0.607605,0.873549,-0.437751,-0.140993,-0.045697,0.001845,0.055063
1722054640.1324,2024-07-26 21:30:40.132,31,false,0.447284,-0.300476,0.583496,0.607605,0.874525,-0.438727,-0.143435,-0.045705,0.001795,0.055135
1722054640.1637,2024-07-26 21:30:40.163,0,false,0.447281,-0.300598,0.583435,0.607605,0.874525,-0.438727,-0.143435,-0.045712,0.00175,0.055201
1722054640.1949,2024-07-26 21:30:40.194,1,false,0.447399,-0.300659,0.583313,0.607605,0.882826,-0.434821,-0.137087,-0.045609,0.001782,0.055149
1722054640.2262,2024-07-26 21:30:40.226,2,false,0.4474,-0.300781,0.583313,0.607544,0.882338,-0.441169,-0.138064,-0.04565,0.001799,0.055177
1722054640.2574,2024-07-26 21:30:40.257,3,false,0.447281,-0.300598,0.583435,0.607605,0.873549,-0.437751,-0.140993,-0.045663,0.0019,0.055201
1722054640.2887,2024-07-26 21:30:40.288,4,false,0.447446,-0.300964,0.583374,0.607361,0.877455,-0.432868,-0.139528,-0.045601,0.001783,0.055162
1722054640.3199,2024-07-26 21:30:40.319,5,false,0.447481,-0.300903,0.583252,0.607483,0.876967,-0.442634,-0.138064,-0.045643,0.0018,0.055188
1722054640.3512,2024-07-26 21:30:40.351,6,false,0.447401,-0.300903,0.583313,0.607483,0.881849,-0.434821,-0.128298,-0.045632,0.00173,0.055077
1722054640.3824,2024-07-26 21:30:40.382,7,false,0.447398,-0.300903,0.583252,0.607544,0.881849,-0.434821,-0.128298,-0.045622,0.001667,0.054977
1722054640.4137,2024-07-26 21:30:40.413,8,false,0.44728,-0.300842,0.583374,0.607544,0.881849,-0.433356,-0.129763,-0.045637,0.001659,0.05496
1722054640.4449,2024-07-26 21:30:40.444,9,false,0.447366,-0.300842,0.583435,0.607422,0.883314,-0.442145,-0.13904,-0.045627,0.001579,0.054957
1722054640.4762,2024-07-26 21:30:40.476,10,false,0.447489,-0.300659,0.583435,0.607422,0.883314,-0.442145,-0.13904,-0.045618,0.001506,0.054955
1722054640.5074,2024-07-26 21:30:40.507,11,false,0.447693,-0.30072,0.583374,0.6073,0.885267,-0.444587,-0.132204,-0.045634,0.001514,0.05488
1722054640.5387,2024-07-26 21:30:40.538,12,false,0.447773,-0.30072,0.583313,0.6073,0.880385,-0.438727,-0.131228,-0.04566,0.00157,0.054946
1722054640.5699,2024-07-26 21:30:40.569,13,false,0.447808,-0.300781,0.583191,0.607361,0.880385,-0.438727,-0.131228,-0.045586,0.001706,0.054981
1722054640.6012,2024-07-26 21:30:40.601,14,false,0.447932,-0.300842,0.583191,0.607239,0.874037,-0.427008,-0.128298,-0.045532,0.001755,0.054903
1722054640.6324,2024-07-26 21:30:40.632,15,false,0.448013,-0.301086,0.58313,0.607117,0.886244,-0.445075,-0.123903,-0.045459,0.001739,0.054833
1722054640.6637,2024-07-26 21:30:40.663,16,false,0.448214,-0.301147,0.583008,0.607056,0.874037,-0.439704,-0.128786,-0.045405,0.001675,0.054879
1722054640.6949,2024-07-26 21:30:40.694,17,false,0.448172,-0.301086,0.583008,0.607117,0.870619,-0.433845,-0.130739,-0.045357,0.001715,0.054885
1722054640.7262,2024-07-26 21:30:40.726,18,false,0.448252,-0.301208,0.582947,0.607056,0.882826,-0.438239,-0.137087,-0.045436,0.001751,0.05478
1722054640.7574,2024-07-26 21:30:40.757,19,false,0.448176,-0.301208,0.583069,0.606995,0.882826,-0.438239,-0.137087,-0.045543,0.001746,0.054795
1722054640.7887,2024-07-26 21:30:40.788,20,false,0.448252,-0.301208,0.582947,0.607056,0.881849,-0.438239,-0.126833,-0.045493,0.001853,0.054894
1722054640.8199,2024-07-26 21:30:40.819,21,false,0.448211,-0.30127,0.582947,0.607056,0.882338,-0.424567,-0.128298,-0.045583,0.001863,0.054947
1722054640.8512,2024-07-26 21:30:40.851,22,false,0.448252,-0.301208,0.582947,0.607056,0.882338,-0.424567,-0.128298,-0.045663,0.001872,0.054994
1722054640.8824,2024-07-26 21:30:40.882,23,false,0.448376,-0.301147,0.582947,0.606995,0.885756,-0.42945,-0.139528,-0.045748,0.001831,0.054964
1722054640.9137,2024-07-26 21:30:40.913,24,false,0.448376,-0.30127,0.582947,0.606934,0.885756,-0.444099,-0.129274,-0.045726,0.001758,0.054875
1722054640.9449,2024-07-26 21:30:40.944,25,false,0.448335,-0.301331,0.582947,0.606934,0.885756,-0.444099,-0.129274,-0.045707,0.001692,0.054795
1722054640.9762,2024-07-26 21:30:40.976,26,false,0.448373,-0.30127,0.582886,0.606995,0.880385,-0.446052,-0.14197,-0.04569,0.00173,0.05487
1722054641.0074,2024-07-26 21:30:41.007,27,false,0.448452,-0.30127,0.582825,0.606995,0.87599,-0.435309,-0.131228,-0.045711,0.001606,0.054974
1722054641.0387,2024-07-26 21:30:41.038,28,false,0.448335,-0.301331,0.582947,0.606934,0.885756,-0.42945,-0.139528,-0.045742,0.00158,0.054994
1722054641.0699,2024-07-26 21:30:41.069,29,false,0.448491,-0.301331,0.582764,0.606995,0.876478,-0.439216,-0.138552,-0.04577,0.001556,0.055012
1722054641.1012,2024-07-26 21:30:41.101,30,false,0.448612,-0.301392,0.582703,0.606934,0.877943,-0.42945,-0.130251,-0.04577,0.001596,0.055053
1722054641.1324,2024-07-26 21:30:41.132,31,false,0.44845,-0.301392,0.582764,0.606995,0.877943,-0.436286,-0.136599,-0.045637,0.001656,0.055005
1722054641.1637,2024-07-26 21:30:41.163,0,false,0.448329,-0.301453,0.582825,0.606995,0.877943,-0.436286,-0.136599,-0.045516,0.00171,0.054961
1722054641.1949,2024-07-26 21:30:41.194,1,false,0.448206,-0.301514,0.582825,0.607056,0.879408,-0.42652,-0.123903,-0.045469,0.001734,0.054946
1722054641.2262,2024-07-26 21:30:41.226,2,false,0.447961,-0.301514,0.582886,0.607178,0.884291,-0.435798,-0.135134,-0.045524,0.001756,0.054932
1722054641.2574,2024-07-26 21:30:41.257,3,false,0.447926,-0.301575,0.583008,0.607056,0.884291,-0.435798,-0.135134,-0.045574,0.001776,0.05492
1722054641.2887,2024-07-26 21:30:41.288,4,false,0.44793,-0.301575,0.583069,0.606995,0.885267,-0.448493,-0.142458,-0.04568,0.001757,0.054946
1722054641.3199,2024-07-26 21:30:41.319,5,false,0.447889,-0.301636,0.583069,0.606995,0.879408,-0.431891,-0.119509,-0.045714,0.00174,0.054969
1722054641.3512,2024-07-26 21:30:41.351,6,false,0.447848,-0.301819,0.583069,0.606934,0.879408,-0.431891,-0.119509,-0.045671,0.001835,0.055124
1722054641.3824,2024-07-26 21:30:41.382,7,false,0.447684,-0.302307,0.583069,0.606812,0.879408,-0.431891,-0.119509,-0.045633,0.00192,0.055263
1722054641.4137,2024-07-26 21:30:41.413,8,false,0.447639,-0.302368,0.583008,0.606873,0.874037,-0.430426,-0.138064,-0.045562,0.001874,0.055206
1722054641.4449,2024-07-26 21:30:41.444,9,false,0.447675,-0.302551,0.582886,0.606873,0.875013,-0.426032,-0.135622,-0.045596,0.001833,0.055179
1722054641.4762,2024-07-26 21:30:41.476,10,false,0.447595,-0.302673,0.582947,0.606812,0.875013,-0.426032,-0.135622,-0.045626,0.001796,0.055154
1722054641.5074,2024-07-26 21:30:41.507,11,false,0.44764,-0.302734,0.583008,0.606689,0.880873,-0.427985,-0.139528,-0.045653,0.001788,0.055132
1722054641.5387,2024-07-26 21:30:41.538,12,false,0.447643,-0.302734,0.583069,0.606628,0.882338,-0.434821,-0.137087,-0.04569,0.001743,0.055075
1722054641.5699,2024-07-26 21:30:41.569,13,false,0.447764,-0.302795,0.583008,0.606567,0.882338,-0.434821,-0.137087,-0.045699,0.001764,0.055024
1722054641.6012,2024-07-26 21:30:41.601,14,false,0.447885,-0.302856,0.582947,0.606506,0.886732,-0.430426,-0.129763,-0.045731,0.001783,0.054979
1722054641.6324,2024-07-26 21:30:41.632,15,false,0.447761,-0.302917,0.582947,0.606567,0.872084,-0.442634,-0.13611,-0.045858,0.001678,0.054998
1722054641.6637,2024-07-26 21:30:41.663,16,false,0.44772,-0.302979,0.582947,0.606567,0.872084,-0.442634,-0.13611,-0.045972,0.001583,0.055016
1722054641.6949,2024-07-26 21:30:41.694,17,false,0.447803,-0.302979,0.582947,0.606506,0.881849,-0.441657,-0.132204,-0.045842,0.001633,0.055105
1722054641.7262,2024-07-26 21:30:41.726,18,false,0.448041,-0.302979,0.582764,0.606506,0.881361,-0.437751,-0.131228,-0.04586,0.001726,0.055076
1722054641.7574,2024-07-26 21:30:41.757,19,false,0.448076,-0.303162,0.582642,0.606506,0.881361,-0.437751,-0.131228,-0.045876,0.00181,0.055049
1722054641.7887,2024-07-26 21:30:41.788,20,false,0.447803,-0.302979,0.582947,0.606506,0.895033,-0.43238,-0.13611,-0.045793,0.001824,0.055001
1722054641.8199,2024-07-26 21:30:41.819,21,false,0.447993,-0.303162,0.582642,0.606567,0.895033,-0.43238,-0.13611,-0.045718,0.001837,0.054958
1722054641.8512,2024-07-26 21:30:41.851,22,false,0.447948,-0.303101,0.582581,0.606689,0.889662,-0.442634,-0.126833,-0.045639,0.001861,0.054992
1722054641.8824,2024-07-26 21:30:41.882,23,false,0.448069,-0.303162,0.58252,0.606628,0.885756,-0.419684,-0.134646,-0.045824,0.001907,0.055083
1722054641.9137,2024-07-26 21:30:41.913,24,false,0.447993,-0.303162,0.582642,0.606567,0.885756,-0.419684,-0.134646,-0.045856,0.001765,0.055166
1722054641.9449,2024-07-26 21:30:41.944,25,false,0.447869,-0.303101,0.582642,0.606689,0.891615,-0.430915,-0.132204,-0.045762,0.00182,0.055143
1722054641.9762,2024-07-26 21:30:41.976,26,false,0.447545,-0.302856,0.582764,0.606934,0.880385,-0.43238,-0.122438,-0.045727,0.001833,0.055109
1722054642.0074,2024-07-26 21:30:42.007,27,false,0.44734,-0.302551,0.582825,0.607178,0.880385,-0.43238,-0.122438,-0.045695,0.001845,0.05508
1722054642.0387,2024-07-26 21:30:42.038,28,false,0.447267,-0.302429,0.583008,0.607117,0.874525,-0.420661,-0.128786,-0.04574,0.001746,0.05504
1722054642.0699,2024-07-26 21:30:42.069,29,false,0.447308,-0.302368,0.583008,0.607117,0.885267,-0.436774,-0.134646,-0.045756,0.001682,0.055066
1722054642.1012,2024-07-26 21:30:42.101,30,false,0.447349,-0.302185,0.583008,0.607178,0.885267,-0.436774,-0.134646,-0.045819,0.001587,0.055041
1722054642.1324,2024-07-26 21:30:42.132,31,false,0.447349,-0.302185,0.583008,0.607178,0.87306,-0.433845,-0.135134,-0.045852,0.001513,0.054981
1722054642.1637,2024-07-26 21:30:42.163,0,false,0.447343,-0.302307,0.582886,0.607239,0.879408,-0.450446,-0.143923,-0.045844,0.001521,0.054903
1722054642.1949,2024-07-26 21:30:42.194,1,false,0.447267,-0.302307,0.583008,0.607178,0.880385,-0.448493,-0.134157,-0.045874,0.00154,0.054906
1722054642.2262,2024-07-26 21:30:42.226,2,false,0.447225,-0.302246,0.583008,0.607239,0.888685,-0.433356,-0.12195,-0.045901,0.001618,0.054823
1722054642.2574,2024-07-26 21:30:42.257,3,false,0.447225,-0.302246,0.583008,0.607239,0.884291,-0.431403,-0.123415,-0.045962,0.001688,0.05481
1722054642.2887,2024-07-26 21:30:42.288,4,false,0.447387,-0.302002,0.582947,0.6073,0.884291,-0.431403,-0.123415,-0.046017,0.001751,0.054797
1722054642.3199,2024-07-26 21:30:42.319,5,false,0.447228,-0.302002,0.583069,0.6073,0.884291,-0.435798,-0.135134,-0.045907,0.001722,0.054811
1722054642.3512,2024-07-26 21:30:42.351,6,false,0.446986,-0.302124,0.583191,0.6073,0.889662,-0.424079,-0.126833,-0.045919,0.001587,0.054933
1722054642.3824,2024-07-26 21:30:42.382,7,false,0.447024,-0.302185,0.58313,0.6073,0.889662,-0.424079,-0.126833,-0.045929,0.001465,0.055043
1722054642.4137,2024-07-26 21:30:42.413,8,false,0.44682,-0.302124,0.583191,0.607422,0.886732,-0.445563,-0.126345,-0.046085,0.001465,0.055154
1722054642.4449,2024-07-26 21:30:42.444,9,false,0.446746,-0.30188,0.583374,0.607422,0.880873,-0.427497,-0.129763,-0.046127,0.001526,0.055229
1722054642.4762,2024-07-26 21:30:42.476,10,false,0.446872,-0.301575,0.583435,0.607422,0.880873,-0.427497,-0.129763,-0.046165,0.001581,0.055297
1722054642.5074,2024-07-26 21:30:42.507,11,false,0.446709,-0.301453,0.583496,0.607544,0.887709,-0.44361,-0.138064,-0.046078,0.001569,0.055322
1722054642.5387,2024-07-26 21:30:42.538,12,false,0.446709,-0.301453,0.583496,0.607544,0.87892,-0.439704,-0.133181,-0.045974,0.001485,0.055307
1722054642.5699,2024-07-26 21:30:42.569,13,false,0.446872,-0.301575,0.583435,0.607422,0.886732,-0.445563,-0.126345,-0.045881,0.001435,0.055294
1722054642.6012,2024-07-26 21:30:42.601,14,false,0.446665,-0.301514,0.583435,0.607605,0.888197,-0.444587,-0.136599,-0.045798,0.001389,0.055283
1722054642.6324,2024-07-26 21:30:42.632,15,false,0.44662,-0.301575,0.583374,0.607666,0.895521,-0.440192,-0.14197,-0.04593,0.001421,0.055309
1722054642.6637,2024-07-26 21:30:42.663,16,false,0.446779,-0.301575,0.583252,0.607666,0.874037,-0.425544,-0.138064,-0.045976,0.001376,0.055173
1722054642.6949,2024-07-26 21:30:42.694,17,false,0.446734,-0.301514,0.583191,0.607788,0.874037,-0.425544,-0.138064,-0.045907,0.001446,0.055271
1722054642.7262,2024-07-26 21:30:42.726,18,false,0.4469,-0.301392,0.583191,0.607727,0.881361,-0.445563,-0.137575,-0.045857,0.00168,0.055286
1722054642.7574,2024-07-26 21:30:42.757,19,false,0.446695,-0.301331,0.583252,0.607849,0.891615,-0.438727,-0.133669,-0.045825,0.001781,0.055226
1722054642.7887,2024-07-26 21:30:42.788,20,false,0.446777,-0.301086,0.583252,0.60791,0.891615,-0.438727,-0.133669,-0.045893,0.001773,0.055234
1722054642.8199,2024-07-26 21:30:42.819,21,false,0.446776,-0.300964,0.583252,0.607971,0.884779,-0.442145,-0.134157,-0.045918,0.001804,0.055265
1722054642.8512,2024-07-26 21:30:42.851,22,false,0.446612,-0.300842,0.583313,0.608093,0.889662,-0.436286,-0.13904,-0.045904,0.001819,0.055256
1722054642.8824,2024-07-26 21:30:42.882,23,false,0.446698,-0.30072,0.583374,0.608032,0.889662,-0.436286,-0.13904,-0.045892,0.001832,0.055248
1722054642.9137,2024-07-26 21:30:42.913,24,false,0.446648,-0.300537,0.583252,0.608276,0.889662,-0.436286,-0.13904,-0.045734,0.001795,0.055216
1722054642.9449,2024-07-26 21:30:42.944,25,false,0.446769,-0.300476,0.583191,0.608276,0.869642,-0.433845,-0.133669,-0.045714,0.001762,0.055225
1722054642.9762,2024-07-26 21:30:42.976,26,false,0.446726,-0.300293,0.583191,0.608398,0.876967,-0.446052,-0.132692,-0.045732,0.001757,0.055171
1722054643.0074,2024-07-26 21:30:43.007,27,false,0.44685,-0.300232,0.583191,0.608337,0.876967,-0.446052,-0.132692,-0.045749,0.001728,0.055123
1722054643.0387,2024-07-26 21:30:43.038,28,false,0.446972,-0.300293,0.58313,0.608276,0.865248,-0.438239,-0.134646,-0.045715,0.00175,0.055214
1722054643.0699,2024-07-26 21:30:43.069,29,false,0.447093,-0.300354,0.583069,0.608215,0.868177,-0.444099,-0.138064,-0.045721,0.001734,0.055149
1722054643.1012,2024-07-26 21:30:43.101,30,false,0.447218,-0.300415,0.583069,0.608093,0.868177,-0.444099,-0.138064,-0.045727,0.001719,0.055091
1722054643.1324,2024-07-26 21:30:43.132,31,false,0.447218,-0.300415,0.583069,0.608093,0.872572,-0.438727,-0.127321,-0.045744,0.001718,0.055172
1722054643.1637,2024-07-26 21:30:43.163,0,false,0.447301,-0.300415,0.583069,0.608032,0.882826,-0.445563,-0.137087,-0.045882,0.001754,0.055124
1722054643.1949,2024-07-26 21:30:43.194,1,false,0.447342,-0.300354,0.583069,0.608032,0.882826,-0.445563,-0.137087,-0.046005,0.001786,0.05508
1722054643.2262,2024-07-26 21:30:43.226,2,false,0.447422,-0.300354,0.583008,0.608032,0.879408,-0.424079,-0.143435,-0.045983,0.001742,0.055114
1722054643.2574,2024-07-26 21:30:43.257,3,false,0.447341,-0.300232,0.583069,0.608093,0.883314,-0.450935,-0.137575,-0.045986,0.001726,0.055182
1722054643.2887,2024-07-26 21:30:43.288,4,false,0.447303,-0.300171,0.58313,0.608093,0.883314,-0.450935,-0.137575,-0.04599,0.001712,0.055242
1722054643.3199,2024-07-26 21:30:43.319,5,false,0.447422,-0.300354,0.583008,0.608032,0.867201,-0.442145,-0.136599,-0.045969,0.001675,0.055346
1722054643.3512,2024-07-26 21:30:43.351,6,false,0.447185,-0.300232,0.583252,0.608032,0.867201,-0.442145,-0.136599,-0.045949,0.001642,0.055439
1722054643.3824,2024-07-26 21:30:43.382,7,false,0.44706,-0.300171,0.583252,0.608154,0.878431,-0.431891,-0.133181,-0.045932,0.001551,0.055473
1722054643.4137,2024-07-26 21:30:43.413,8,false,0.447057,-0.300171,0.583191,0.608215,0.894057,-0.436286,-0.135134,-0.045941,0.00153,0.055383
1722054643.4449,2024-07-26 21:30:43.444,9,false,0.447015,-0.30011,0.583191,0.608276,0.894057,-0.436286,-0.135134,-0.045888,0.001475,0.055264
1722054643.4762,2024-07-26 21:30:43.476,10,false,0.447097,-0.299988,0.583191,0.608276,0.879408,-0.442145,-0.121462,-0.045938,0.001401,0.055158
1722054643.5074,2024-07-26 21:30:43.507,11,false,0.447021,-0.299988,0.583313,0.608215,0.882338,-0.437263,-0.135622,-0.045995,0.001468,0.055196
1722054643.5387,2024-07-26 21:30:43.538,12,false,0.447024,-0.299988,0.583374,0.608154,0.882338,-0.437263,-0.135622,-0.046047,0.001529,0.055231
1722054643.5699,2024-07-26 21:30:43.569,13,false,0.446817,-0.300049,0.583374,0.608276,0.881361,-0.443122,-0.133669,-0.046044,0.001596,0.055128
1722054643.6012,2024-07-26 21:30:43.601,14,false,0.446689,-0.30011,0.583313,0.608398,0.871107,-0.434821,-0.120974,-0.046042,0.001692,0.055096
1722054643.6324,2024-07-26 21:30:43.632,15,false,0.446726,-0.299927,0.583252,0.608521,0.871107,-0.434821,-0.120974,-0.046137,0.001743,0.055068
1722054643.6637,2024-07-26 21:30:43.663,16,false,0.446643,-0.299927,0.583252,0.608582,0.877455,-0.42652,-0.142458,-0.046028,0.001764,0.055079
1722054643.6949,2024-07-26 21:30:43.694,17,false,0.446606,-0.299744,0.583374,0.608582,0.879896,-0.445563,-0.140993,-0.045954,0.001673,0.05504
1722054643.7262,2024-07-26 21:30:43.726,18,false,0.446567,-0.299683,0.583435,0.608582,0.865736,-0.434821,-0.130251,-0.046059,0.001603,0.054992
1722054643.7574,2024-07-26 21:30:43.757,19,false,0.446689,-0.299744,0.583374,0.608521,0.883314,-0.431891,-0.150759,-0.045994,0.001663,0.054889
1722054643.7887,2024-07-26 21:30:43.788,20,false,0.446731,-0.299805,0.583374,0.608459,0.882826,-0.438727,-0.125368,-0.045997,0.001716,0.054856
1722054643.8199,2024-07-26 21:30:43.819,21,false,0.446854,-0.299622,0.583374,0.608459,0.882826,-0.438727,-0.125368,-0.045999,0.001764,0.054827
1722054643.8512,2024-07-26 21:30:43.851,22,false,0.44681,-0.299683,0.583313,0.608521,0.876967,-0.437263,-0.139528,-0.04616,0.001661,0.054923
1722054643.8824,2024-07-26 21:30:43.882,23,false,0.446893,-0.299683,0.583313,0.608459,0.883803,-0.442145,-0.141482,-0.046158,0.001703,0.054924
1722054643.9137,2024-07-26 21:30:43.913,24,false,0.446736,-0.299561,0.583496,0.608459,0.883803,-0.442145,-0.141482,-0.046157,0.00174,0.054925
1722054643.9449,2024-07-26 21:30:43.944,25,false,0.446653,-0.299561,0.583496,0.608521,0.892592,-0.448981,-0.145388,-0.046192,0.001712,0.054987
1722054643.9762,2024-07-26 21:30:43.976,26,false,0.44673,-0.299683,0.583374,0.608521,0.885756,-0.443122,-0.13904,-0.046163,0.001688,0.054957
1722054644.0074,2024-07-26 21:30:44.007,27,false,0.446646,-0.299927,0.583313,0.608521,0.885756,-0.443122,-0.13904,-0.046136,0.001665,0.05493
1722054644.0387,2024-07-26 21:30:44.038,28,false,0.446649,-0.299927,0.583374,0.608459,0.883803,-0.439704,-0.147829,-0.046161,0.001657,0.054833
1722054644.0699,2024-07-26 21:30:44.069,29,false,0.446409,-0.299805,0.583557,0.608521,0.882826,-0.441169,-0.12488,-0.046025,0.00165,0.054891
1722054644.1012,2024-07-26 21:30:44.101,30,false,0.446646,-0.299927,0.583313,0.608521,0.892592,-0.448981,-0.145388,-0.046001,0.001705,0.054859
1722054644.1324,2024-07-26 21:30:44.132,31,false,0.446488,-0.299683,0.583496,0.608582,0.874525,-0.442634,-0.142947,-0.045978,0.001754,0.05483
1722054644.1637,2024-07-26 21:30:44.163,0,false,0.446404,-0.299683,0.583496,0.608643,0.881849,-0.448005,-0.134646,-0.045934,0.001811,0.054791
1722054644.1949,2024-07-26 21:30:44.194,1,false,0.446603,-0.299744,0.583313,0.608643,0.886732,-0.438727,-0.131228,-0.04593,0.001837,0.054903
1722054644.2262,2024-07-26 21:30:44.226,2,false,0.446523,-0.299744,0.583374,0.608643,0.886732,-0.438727,-0.131228,-0.045927,0.001861,0.055004
1722054644.2574,2024-07-26 21:30:44.257,3,false,0.446641,-0.299805,0.583252,0.608643,0.880385,-0.431891,-0.144411,-0.045924,0.001907,0.055033
1722054644.2887,2024-07-26 21:30:44.288,4,false,0.446767,-0.299866,0.583252,0.608521,0.882338,-0.446052,-0.130739,-0.045726,0.001948,0.05506
1722054644.3199,2024-07-26 21:30:44.319,5,false,0.446848,-0.299988,0.583191,0.608459,0.882338,-0.446052,-0.130739,-0.045548,0.001985,0.055084
1722054644.3512,2024-07-26 21:30:44.351,6,false,0.44677,-0.299866,0.583313,0.608459,0.880873,-0.42652,-0.128786,-0.045474,0.001945,0.055056
1722054644.3824,2024-07-26 21:30:44.382,7,false,0.446687,-0.299866,0.583313,0.608521,0.875013,-0.441657,-0.127321,-0.045467,0.002032,0.055215
1722054644.4137,2024-07-26 21:30:44.413,8,false,0.446444,-0.299866,0.583435,0.608582,0.875013,-0.441657,-0.127321,-0.045462,0.002109,0.055357
1722054644.4449,2024-07-26 21:30:44.444,9,false,0.446605,-0.299622,0.583374,0.608643,0.874525,-0.440681,-0.138064,-0.045518,0.002057,0.0554
1722054644.4762,2024-07-26 21:30:44.476,10,false,0.446602,-0.299377,0.583374,0.608765,0.882338,-0.430426,-0.137575,-0.045556,0.00212,0.055476
1722054644.5074,2024-07-26 21:30:44.507,11,false,0.446682,-0.299377,0.583313,0.608765,0.869642,-0.44361,-0.138552,-0.045615,0.002115,0.055458
1722054644.5387,2024-07-26 21:30:44.538,12,false,0.446678,-0.299377,0.583252,0.608826,0.882338,-0.434333,-0.12781,-0.045643,0.00205,0.055442
1722054644.5699,2024-07-26 21:30:44.569,13,false,0.446675,-0.299377,0.583191,0.608887,0.881361,-0.445075,-0.131228,-0.045571,0.002016,0.055281
1722054644.6012,2024-07-26 21:30:44.601,14,false,0.446717,-0.299438,0.583191,0.608826,0.881361,-0.445075,-0.131228,-0.045616,0.002071,0.055234
1722054644.6324,2024-07-26 21:30:44.632,15,false,0.44663,-0.299438,0.58313,0.608948,0.886244,-0.437751,-0.14197,-0.045595,0.001998,0.055228
1722054644.6637,2024-07-26 21:30:44.663,16,false,0.44659,-0.2995,0.58313,0.608948,0.877455,-0.436286,-0.148806,-0.045638,0.001957,0.055101
1722054644.6949,2024-07-26 21:30:44.694,17,false,0.446505,-0.299377,0.58313,0.60907,0.877455,-0.436286,-0.148806,-0.045676,0.00192,0.054987
1722054644.7262,2024-07-26 21:30:44.726,18,false,0.446587,-0.299255,0.58313,0.60907,0.871107,-0.437751,-0.139528,-0.045711,0.001923,0.055067
1722054644.7574,2024-07-26 21:30:44.757,19,false,0.446546,-0.299316,0.58313,0.60907,0.873549,-0.442634,-0.140017,-0.045644,0.001926,0.055041
1722054644.7887,2024-07-26 21:30:44.788,20,false,0.446425,-0.299377,0.583191,0.60907,0.873549,-0.442634,-0.140017,-0.04567,0.00188,0.055067
1722054644.8199,2024-07-26 21:30:44.819,21,false,0.446349,-0.299377,0.583313,0.609009,0.892103,-0.435798,-0.134157,-0.045607,0.001851,0.055078
1722054644.8512,2024-07-26 21:30:44.851,22,false,0.446223,-0.299316,0.583313,0.609131,0.880385,-0.438239,-0.140993,-0.045661,0.001873,0.054978
1722054644.8824,2024-07-26 21:30:44.882,23,false,0.446425,-0.299377,0.583191,0.60907,0.871107,-0.437751,-0.139528,-0.045697,0.002089,0.054937
1722054644.9137,2024-07-26 21:30:44.913,24,false,0.446223,-0.299316,0.583313,0.609131,0.877455,-0.447028,-0.133669,-0.045729,0.002283,0.0549
1722054644.9449,2024-07-26 21:30:44.944,25,false,0.446148,-0.299438,0.583435,0.609009,0.878431,-0.452399,-0.133181,-0.045697,0.00225,0.054866
1722054644.9762,2024-07-26 21:30:44.976,26,false,0.44615,-0.299561,0.583435,0.608948,0.879408,-0.453376,-0.134646,-0.045718,0.002135,0.054848
1722054645.0074,2024-07-26 21:30:45.007,27,false,0.446151,-0.299683,0.583435,0.608887,0.879408,-0.453376,-0.134646,-0.04565,0.002141,0.054845
1722054645.0387,2024-07-26 21:30:45.038,28,false,0.446271,-0.299866,0.583313,0.608826,0.865736,-0.436774,-0.126345,-0.0457,0.002098,0.054914
1722054645.0699,2024-07-26 21:30:45.069,29,false,0.44615,-0.299927,0.583374,0.608826,0.874525,-0.435798,-0.141482,-0.045671,0.002022,0.054904
1722054645.1012,2024-07-26 21:30:45.101,30,false,0.446277,-0.30011,0.583374,0.608643,0.874525,-0.435798,-0.141482,-0.045645,0.001954,0.054895
1722054645.1324,2024-07-26 21:30:45.132,31,false,0.446403,-0.300293,0.583374,0.608459,0.889662,-0.457282,-0.125368,-0.045719,0.001832,0.054947
1722054645.1637,2024-07-26 21:30:45.163,0,false,0.446447,-0.300476,0.583374,0.608337,0.887709,-0.442145,-0.137087,-0.045835,0.001734,0.05486
1722054645.1949,2024-07-26 21:30:45.194,1,false,0.446246,-0.300537,0.583496,0.608337,0.887709,-0.442145,-0.137087,-0.045939,0.001646,0.054782
1722054645.2262,2024-07-26 21:30:45.226,2,false,0.446204,-0.300476,0.583496,0.608398,0.881361,-0.431891,-0.130251,-0.045935,0.001714,0.054748
1722054645.2574,2024-07-26 21:30:45.257,3,false,0.446163,-0.300537,0.583496,0.608398,0.876478,-0.437751,-0.138552,-0.046029,0.001689,0.054681
1722054645.2887,2024-07-26 21:30:45.288,4,false,0.446326,-0.300537,0.583435,0.608337,0.882826,-0.438239,-0.12488,-0.046126,0.001715,0.05467
1722054645.3199,2024-07-26 21:30:45.319,5,false,0.446321,-0.300415,0.583374,0.608459,0.876478,-0.437751,-0.128298,-0.046091,0.001678,0.054745
1722054645.3512,2024-07-26 21:30:45.351,6,false,0.44644,-0.300476,0.583252,0.608459,0.886732,-0.432868,-0.142947,-0.045974,0.001718,0.054739
1722054645.3824,2024-07-26 21:30:45.382,7,false,0.446604,-0.300598,0.583191,0.608337,0.886732,-0.432868,-0.142947,-0.045869,0.001753,0.054734
1722054645.4137,2024-07-26 21:30:45.413,8,false,0.446607,-0.300598,0.583252,0.608276,0.87599,-0.444099,-0.120485,-0.045872,0.00181,0.054852
1722054645.4449,2024-07-26 21:30:45.444,9,false,0.446608,-0.30072,0.583252,0.608215,0.869154,-0.431403,-0.123415,-0.045875,0.001837,0.054835
1722054645.4762,2024-07-26 21:30:45.476,10,false,0.446647,-0.300903,0.583191,0.608154,0.869154,-0.431403,-0.123415,-0.045877,0.001763,0.054943
1722054645.5074,2024-07-26 21:30:45.507,11,false,0.44681,-0.300903,0.58313,0.608093,0.888197,-0.442145,-0.137087,-0.045892,0.001745,0.055052
1722054645.5387,2024-07-26 21:30:45.538,12,false,0.446852,-0.300964,0.58313,0.608032,0.875013,-0.443122,-0.13904,-0.045917,0.001778,0.055076
1722054645.5699,2024-07-26 21:30:45.569,13,false,0.446777,-0.301086,0.583252,0.60791,0.875013,-0.443122,-0.13904,-0.045939,0.001808,0.055098
1722054645.6012,2024-07-26 21:30:45.601,14,false,0.446649,-0.301147,0.583191,0.608032,0.885756,-0.439704,-0.133181,-0.045935,0.001737,0.055143
1722054645.6324,2024-07-26 21:30:45.632,15,false,0.446852,-0.300964,0.58313,0.608032,0.885756,-0.439704,-0.133181,-0.045932,0.001673,0.055183
1722054645.6637,2024-07-26 21:30:45.663,16,false,0.446768,-0.301331,0.583069,0.607971,0.879896,-0.44361,-0.124392,-0.045831,0.001591,0.05528
1722054645.6949,2024-07-26 21:30:45.694,17,false,0.446602,-0.301331,0.583069,0.608093,0.883803,-0.435309,-0.134157,-0.045789,0.00153,0.055209
1722054645.7262,2024-07-26 21:30:45.726,18,false,0.44648,-0.30127,0.58313,0.608154,0.883803,-0.435309,-0.134157,-0.045788,0.001511,0.055144
1722054645.7574,2024-07-26 21:30:45.757,19,false,0.446237,-0.301147,0.583252,0.608276,0.883803,-0.42652,-0.129274,-0.045713,0.00158,0.055233
1722054645.7887,2024-07-26 21:30:45.788,20,false,0.446275,-0.301208,0.583191,0.608276,0.875502,-0.431403,-0.138064,-0.045744,0.001703,0.055227
1722054645.8199,2024-07-26 21:30:45.819,21,false,0.446317,-0.30127,0.583191,0.608215,0.875502,-0.431403,-0.138064,-0.045772,0.001813,0.055222
1722054645.8512,2024-07-26 21:30:45.851,22,false,0.446357,-0.301453,0.58313,0.608154,0.888685,-0.43238,-0.130739,-0.045833,0.001912,0.055181
1722054645.8824,2024-07-26 21:30:45.882,23,false,0.446398,-0.301514,0.58313,0.608093,0.886732,-0.447517,-0.134157,-0.04584,0.001929,0.055071
1722054645.9137,2024-07-26 21:30:45.913,24,false,0.446239,-0.301514,0.583252,0.608093,0.886732,-0.447517,-0.134157,-0.045846,0.001943,0.054972
1722054645.9449,2024-07-26 21:30:45.944,25,false,0.446163,-0.301636,0.583374,0.607971,0.876478,-0.433845,-0.137575,-0.045949,0.002042,0.054943
1722054645.9762,2024-07-26 21:30:45.976,26,false,0.446161,-0.301758,0.583313,0.607971,0.891615,-0.43238,-0.131228,-0.045932,0.001972,0.05493
1722054646.0074,2024-07-26 21:30:46.007,27,false,0.446085,-0.30188,0.583435,0.607849,0.891615,-0.43238,-0.131228,-0.045916,0.001909,0.054918
1722054646.0387,2024-07-26 21:30:46.038,28,false,0.446002,-0.302002,0.583435,0.607849,0.891615,-0.43238,-0.131228,-0.045902,0.001914,0.055005
1722054646.0699,2024-07-26 21:30:46.069,29,false,0.446082,-0.302124,0.583374,0.607788,0.881849,-0.436286,-0.133669,-0.045804,0.001869,0.054998
1722054646.1012,2024-07-26 21:30:46.101,30,false,0.446162,-0.302124,0.583313,0.607788,0.873549,-0.442145,-0.12781,-0.045814,0.001889,0.054967
1722054646.1324,2024-07-26 21:30:46.132,31,false,0.446158,-0.302246,0.583252,0.607788,0.873549,-0.442145,-0.12781,-0.045822,0.001908,0.054939
1722054646.1637,2024-07-26 21:30:46.163,0,false,0.446038,-0.302307,0.583313,0.607788,0.89308,-0.444099,-0.141482,-0.045781,0.001912,0.054987
1722054646.1949,2024-07-26 21:30:46.194,1,false,0.446035,-0.302429,0.583252,0.607788,0.89015,-0.428473,-0.132692,-0.045756,0.002014,0.055043
1722054646.2262,2024-07-26 21:30:46.226,2,false,0.44607,-0.30249,0.58313,0.607849,0.89015,-0.428473,-0.132692,-0.045734,0.002106,0.055093
1722054646.2574,2024-07-26 21:30:46.257,3,false,0.446153,-0.30249,0.58313,0.607788,0.884779,-0.436774,-0.129763,-0.045641,0.002115,0.055187
1722054646.2887,2024-07-26 21:30:46.288,4,false,0.446153,-0.30249,0.58313,0.607788,0.883314,-0.439216,-0.129274,-0.045654,0.002123,0.055271
1722054646.3199,2024-07-26 21:30:46.319,5,false,0.446153,-0.30249,0.58313,0.607788,0.883314,-0.439216,-0.129274,-0.045667,0.002131,0.055347
1722054646.3512,2024-07-26 21:30:46.351,6,false,0.446153,-0.302368,0.58313,0.607849,0.892592,-0.444099,-0.131228,-0.045531,0.002149,0.055196
1722054646.3824,2024-07-26 21:30:46.382,7,false,0.446195,-0.302429,0.58313,0.607788,0.880385,-0.42652,-0.143923,-0.045556,0.002154,0.055133
1722054646.4137,2024-07-26 21:30:46.413,8,false,0.446153,-0.30249,0.58313,0.607788,0.884779,-0.436774,-0.129763,-0.045553,0.00211,0.055027
1722054646.4449,2024-07-26 21:30:46.444,9,false,0.445907,-0.30249,0.583191,0.60791,0.883803,-0.436286,-0.129763,-0.045551,0.00207,0.054932
1722054646.4762,2024-07-26 21:30:46.476,10,false,0.44599,-0.302368,0.583191,0.60791,0.875013,-0.439704,-0.13611,-0.045647,0.002009,0.054969
1722054646.5074,2024-07-26 21:30:46.507,11,false,0.44599,-0.302246,0.583191,0.607971,0.885756,-0.427497,-0.134157,-0.045611,0.002077,0.054965
1722054646.5387,2024-07-26 21:30:46.538,12,false,0.445951,-0.302185,0.583252,0.607971,0.885756,-0.427497,-0.134157,-0.045579,0.002138,0.054962
1722054646.5699,2024-07-26 21:30:46.569,13,false,0.445951,-0.302185,0.583252,0.607971,0.880385,-0.434333,-0.128786,-0.045562,0.002022,0.055008
1722054646.6012,2024-07-26 21:30:46.601,14,false,0.446076,-0.302124,0.583252,0.60791,0.89015,-0.42945,-0.140505,-0.045486,0.001978,0.055086
1722054646.6324,2024-07-26 21:30:46.632,15,false,0.446117,-0.302185,0.583252,0.607849,0.89015,-0.42945,-0.140505,-0.045418,0.001939,0.055156
1722054646.6637,2024-07-26 21:30:46.663,16,false,0.446281,-0.302307,0.583191,0.607727,0.885756,-0.437751,-0.135622,-0.045478,0.001879,0.055329
1722054646.6949,2024-07-26 21:30:46.694,17,false,0.446402,-0.302368,0.58313,0.607666,0.900404,-0.425055,-0.133669,-0.04541,0.00185,0.055424
1722054646.7262,2024-07-26 21:30:46.726,18,false,0.446483,-0.302612,0.583069,0.607544,0.900404,-0.425055,-0.133669,-0.045349,0.001824,0.055509
1722054646.7574,2024-07-26 21:30:46.757,19,false,0.446122,-0.302429,0.583313,0.607666,0.900404,-0.425055,-0.133669,-0.045416,0.001898,0.055561
1722054646.7887,2024-07-26 21:30:46.788,20,false,0.446042,-0.302429,0.583374,0.607666,0.884779,-0.434333,-0.128298,-0.045428,0.001916,0.05562
1722054646.8199,2024-07-26 21:30:46.819,21,false,0.446039,-0.302429,0.583313,0.607727,0.884779,-0.435309,-0.126345,-0.045487,0.001919,0.055576
1722054646.8512,2024-07-26 21:30:46.851,22,false,0.446003,-0.302246,0.583435,0.607727,0.884779,-0.435309,-0.126345,-0.045541,0.001923,0.055536
1722054646.8824,2024-07-26 21:30:46.882,23,false,0.445875,-0.302185,0.583374,0.60791,0.888197,-0.440681,-0.147341,-0.045638,0.001901,0.05539
1722054646.9137,2024-07-26 21:30:46.913,24,false,0.445871,-0.302185,0.583313,0.607971,0.87892,-0.430426,-0.134157,-0.045554,0.001931,0.055369
1722054646.9449,2024-07-26 21:30:46.944,25,false,0.445756,-0.302124,0.583496,0.60791,0.87892,-0.430426,-0.134157,-0.045601,0.001835,0.05535
1722054646.9762,2024-07-26 21:30:46.976,26,false,0.445798,-0.302185,0.583496,0.607849,0.888197,-0.428473,-0.131228,-0.045618,0.001786,0.055418
1722054647.0074,2024-07-26 21:30:47.007,27,false,0.445762,-0.302002,0.583618,0.607849,0.886244,-0.433845,-0.129763,-0.045598,0.001766,0.055357
1722054647.0387,2024-07-26 21:30:47.038,28,false,0.445839,-0.302002,0.583496,0.60791,0.886244,-0.433845,-0.129763,-0.045579,0.001748,0.055302
1722054647.0699,2024-07-26 21:30:47.069,29,false,0.445833,-0.302124,0.583374,0.607971,0.882826,-0.427985,-0.129274,-0.04566,0.001647,0.05529
1722054647.1012,2024-07-26 21:30:47.101,30,false,0.445714,-0.301941,0.583496,0.608032,0.879896,-0.433356,-0.133181,-0.045732,0.001738,0.055339
1722054647.1324,2024-07-26 21:30:47.132,31,false,0.445631,-0.301941,0.583496,0.608093,0.879896,-0.433356,-0.133181,-0.045798,0.001821,0.055384
1722054647.1637,2024-07-26 21:30:47.163,0,false,0.445833,-0.302124,0.583374,0.607971,0.880385,-0.428473,-0.13611,-0.045881,0.001834,0.055388
1722054647.1949,2024-07-26 21:30:47.194,1,false,0.445628,-0.302063,0.583435,0.608093,0.880385,-0.428473,-0.13611,-0.045932,0.00187,0.055367
1722054647.2262,2024-07-26 21:30:47.226,2,false,0.445704,-0.302063,0.583313,0.608154,0.884779,-0.426032,-0.138064,-0.045868,0.001915,0.05536
1722054647.2574,2024-07-26 21:30:47.257,3,false,0.4455,-0.302124,0.583374,0.608215,0.886244,-0.43238,-0.128786,-0.045932,0.001895,0.055232
1722054647.2887,2024-07-26 21:30:47.288,4,false,0.445502,-0.302002,0.583435,0.608215,0.886244,-0.43238,-0.128786,-0.04599,0.001876,0.055116
1722054647.3199,2024-07-26 21:30:47.319,5,false,0.445383,-0.301819,0.583557,0.608276,0.884779,-0.445075,-0.127321,-0.046005,0.001896,0.055135
1722054647.3512,2024-07-26 21:30:47.351,6,false,0.445259,-0.30188,0.583557,0.608337,0.881361,-0.444587,-0.139528,-0.045933,0.001853,0.055236
1722054647.3824,2024-07-26 21:30:47.382,7,false,0.445217,-0.301819,0.583557,0.608398,0.881361,-0.444587,-0.139528,-0.045869,0.001814,0.055328
1722054647.4137,2024-07-26 21:30:47.413,8,false,0.445213,-0.301819,0.583496,0.608459,0.892103,-0.445075,-0.130739,-0.045884,0.001828,0.055337
1722054647.4449,2024-07-26 21:30:47.444,9,false,0.445293,-0.301819,0.583435,0.608459,0.886244,-0.443122,-0.14197,-0.04591,0.001816,0.055334
1722054647.4762,2024-07-26 21:30:47.476,10,false,0.445456,-0.301697,0.583374,0.608459,0.886244,-0.443122,-0.14197,-0.045933,0.001805,0.05533
1722054647.5074,2024-07-26 21:30:47.507,11,false,0.445538,-0.301575,0.583374,0.608459,0.881849,-0.439216,-0.137087,-0.04593,0.001735,0.055266
1722054647.5387,2024-07-26 21:30:47.538,12,false,0.445457,-0.301331,0.583435,0.608582,0.879896,-0.417243,-0.121462,-0.045915,0.001781,0.055318
1722054647.5699,2024-07-26 21:30:47.569,13,false,0.445206,-0.301208,0.583435,0.608826,0.890639,-0.427985,-0.138064,-0.045852,0.001749,0.05534
1722054647.6012,2024-07-26 21:30:47.601,14,false,0.445293,-0.301208,0.583496,0.608704,0.879896,-0.425055,-0.12488,-0.045808,0.001916,0.055349
1722054647.6324,2024-07-26 21:30:47.632,15,false,0.445251,-0.301147,0.583496,0.608765,0.873549,-0.429938,-0.136599,-0.045817,0.001957,0.055368
1722054647.6637,2024-07-26 21:30:47.663,16,false,0.445087,-0.301147,0.583557,0.608826,0.873549,-0.429938,-0.136599,-0.045825,0.001993,0.055385
1722054647.6949,2024-07-26 21:30:47.694,17,false,0.445091,-0.301147,0.583618,0.608765,0.897475,-0.428962,-0.133181,-0.045784,0.001867,0.055389
1722054647.7262,2024-07-26 21:30:47.726,18,false,0.445005,-0.30127,0.583557,0.608826,0.891615,-0.451423,-0.129763,-0.045698,0.001827,0.055319
1722054647.7574,2024-07-26 21:30:47.757,19,false,0.445046,-0.301208,0.583557,0.608826,0.891615,-0.451423,-0.129763,-0.04562,0.00179,0.055256
1722054647.7887,2024-07-26 21:30:47.788,20,false,0.445046,-0.301208,0.583557,0.608826,0.876967,-0.436774,-0.126833,-0.045709,0.001758,0.055285
1722054647.8199,2024-07-26 21:30:47.819,21,false,0.445166,-0.301025,0.583496,0.608887,0.866224,-0.444099,-0.130251,-0.045753,0.001729,0.05531
1722054647.8512,2024-07-26 21:30:47.851,22,false,0.44525,-0.301025,0.583496,0.608826,0.866224,-0.444099,-0.130251,-0.045792,0.001702,0.055334
1722054647.8824,2024-07-26 21:30:47.882,23,false,0.445169,-0.300903,0.583557,0.608887,0.888197,-0.439704,-0.134646,-0.045692,0.001788,0.055379
1722054647.9137,2024-07-26 21:30:47.913,24,false,0.445175,-0.300781,0.583679,0.608826,0.872572,-0.440192,-0.137087,-0.045616,0.001817,0.055188
1722054647.9449,2024-07-26 21:30:47.944,25,false,0.44525,-0.301025,0.583496,0.608826,0.876967,-0.436774,-0.126833,-0.045705,0.001867,0.055113
1722054647.9762,2024-07-26 21:30:47.976,26,false,0.44497,-0.300842,0.58374,0.608887,0.883803,-0.442634,-0.128786,-0.045785,0.001912,0.055047
1722054648.0074,2024-07-26 21:30:48.007,27,false,0.444928,-0.300781,0.58374,0.608948,0.889662,-0.440681,-0.120974,-0.04576,0.001953,0.055096
1722054648.0387,2024-07-26 21:30:48.038,28,false,0.444997,-0.300781,0.583496,0.609131,0.875502,-0.44654,-0.132692,-0.045933,0.001868,0.055141
1722054648.0699,2024-07-26 21:30:48.069,29,false,0.444797,-0.300598,0.583679,0.609192,0.875502,-0.44654,-0.132692,-0.046088,0.001791,0.055181
1722054648.1012,2024-07-26 21:30:48.101,30,false,0.4448,-0.300476,0.58374,0.609192,0.898939,-0.435798,-0.133181,-0.046216,0.001746,0.055181
1722054648.1324,2024-07-26 21:30:48.132,31,false,0.444716,-0.300476,0.58374,0.609253,0.882338,-0.434821,-0.139528,-0.046245,0.001718,0.055156
1722054648.1637,2024-07-26 21:30:48.163,0,false,0.444755,-0.300537,0.583679,0.609253,0.882338,-0.434821,-0.139528,-0.046271,0.001693,0.055133
1722054648.1949,2024-07-26 21:30:48.194,1,false,0.444835,-0.300537,0.583618,0.609253,0.884779,-0.447517,-0.122927,-0.046222,0.001719,0.055199
1722054648.2262,2024-07-26 21:30:48.226,2,false,0.44487,-0.300598,0.583496,0.609314,0.876967,-0.448005,-0.139528,-0.0463,0.001644,0.055197
1722054648.2574,2024-07-26 21:30:48.257,3,false,0.444831,-0.300537,0.583557,0.609314,0.876967,-0.448005,-0.139528,-0.046369,0.001578,0.055195
1722054648.2887,2024-07-26 21:30:48.288,4,false,0.445037,-0.300598,0.583496,0.609192,0.887221,-0.434821,-0.140505,-0.04631,0.001554,0.055034
1722054648.3199,2024-07-26 21:30:48.319,5,false,0.445,-0.300659,0.583557,0.609131,0.881361,-0.434333,-0.138552,-0.04622,0.001557,0.055048
1722054648.3512,2024-07-26 21:30:48.351,6,false,0.444961,-0.300598,0.583618,0.609131,0.883803,-0.432868,-0.133181,-0.046237,0.001597,0.055025
1722054648.3824,2024-07-26 21:30:48.382,7,false,0.444883,-0.300476,0.58374,0.609131,0.884291,-0.441169,-0.137575,-0.046191,0.001596,0.055064
1722054648.4137,2024-07-26 21:30:48.413,8,false,0.444883,-0.300476,0.58374,0.609131,0.879408,-0.44654,-0.128786,-0.046235,0.001717,0.055075
1722054648.4449,2024-07-26 21:30:48.444,9,false,0.444843,-0.300293,0.583801,0.609192,0.879408,-0.44654,-0.128786,-0.046275,0.001826,0.055086
1722054648.4762,2024-07-26 21:30:48.476,10,false,0.444801,-0.300232,0.583801,0.609253,0.87892,-0.442145,-0.134646,-0.046115,0.001998,0.055021
1722054648.5074,2024-07-26 21:30:48.507,11,false,0.444961,-0.300232,0.583679,0.609253,0.879896,-0.436286,-0.133669,-0.045971,0.001969,0.054964
1722054648.5387,2024-07-26 21:30:48.538,12,false,0.445047,-0.30011,0.58374,0.609192,0.879896,-0.436286,-0.133669,-0.045854,0.001931,0.055009
1722054648.5699,2024-07-26 21:30:48.569,13,false,0.445002,-0.300171,0.583679,0.609253,0.879896,-0.441657,-0.146365,-0.045883,0.001969,0.055063
1722054648.6012,2024-07-26 21:30:48.601,14,false,0.445123,-0.30011,0.583618,0.609253,0.880873,-0.444587,-0.137087,-0.045873,0.002212,0.055038
1722054648.6324,2024-07-26 21:30:48.632,15,false,0.445287,-0.30011,0.583557,0.609192,0.880873,-0.444587,-0.137087,-0.045863,0.00243,0.055015
1722054648.6637,2024-07-26 21:30:48.663,16,false,0.445293,-0.299988,0.583679,0.609131,0.875013,-0.44361,-0.12195,-0.045891,0.002334,0.055104
1722054648.6949,2024-07-26 21:30:48.694,17,false,0.445337,-0.299927,0.58374,0.60907,0.876478,-0.44361,-0.135134,-0.045806,0.002235,0.055136
1722054648.7262,2024-07-26 21:30:48.726,18,false,0.445287,-0.30011,0.583557,0.609192,0.879896,-0.441657,-0.146365,-0.045877,0.002121,0.055116
1722054648.7574,2024-07-26 21:30:48.757,19,false,0.445294,-0.30011,0.583679,0.60907,0.880873,-0.445075,-0.13611,-0.04594,0.002019,0.055097
1722054648.7887,2024-07-26 21:30:48.788,20,false,0.445173,-0.300171,0.58374,0.60907,0.888685,-0.436774,-0.138064,-0.045924,0.002012,0.055105
1722054648.8199,2024-07-26 21:30:48.819,21,false,0.445055,-0.300232,0.583862,0.609009,0.880873,-0.451911,-0.133669,-0.046019,0.001896,0.055186
1722054648.8512,2024-07-26 21:30:48.851,22,false,0.445055,-0.300232,0.583862,0.609009,0.880873,-0.451911,-0.133669,-0.046105,0.001792,0.055258
1722054648.8824,2024-07-26 21:30:48.882,23,false,0.444852,-0.300171,0.583984,0.60907,0.87892,-0.447517,-0.124392,-0.046108,0.001845,0.055323
1722054648.9137,2024-07-26 21:30:48.913,24,false,0.44481,-0.30011,0.583984,0.609131,0.877455,-0.445563,-0.140993,-0.045965,0.001831,0.055382
1722054648.9449,2024-07-26 21:30:48.944,25,false,0.444768,-0.300049,0.583984,0.609192,0.877455,-0.445563,-0.140993,-0.04591,0.001746,0.055325
1722054648.9762,2024-07-26 21:30:48.976,26,false,0.44468,-0.300049,0.583923,0.609314,0.875013,-0.444099,-0.134646,-0.045933,0.001596,0.055261
1722054649.0074,2024-07-26 21:30:49.007,27,false,0.444679,-0.299927,0.583923,0.609375,0.872572,-0.44361,-0.140993,-0.046052,0.001766,0.055411
1722054649.0387,2024-07-26 21:30:49.038,28,false,0.444683,-0.299927,0.583984,0.609314,0.872572,-0.44361,-0.140993,-0.046147,0.001662,0.055388
1722054649.0699,2024-07-26 21:30:49.069,29,false,0.444723,-0.30011,0.583923,0.609253,0.872572,-0.44361,-0.140993,-0.046232,0.001569,0.055367
1722054649.1012,2024-07-26 21:30:49.101,30,false,0.444725,-0.299988,0.583984,0.609253,0.878431,-0.438239,-0.127321,-0.046308,0.001608,0.055311
1722054649.1324,2024-07-26 21:30:49.132,31,false,0.444515,-0.299927,0.583984,0.609436,0.874525,-0.429938,-0.128298,-0.046292,0.001679,0.05531
1722054649.1637,2024-07-26 21:30:49.163,0,false,0.444439,-0.299927,0.584106,0.609375,0.874525,-0.429938,-0.128298,-0.046277,0.001743,0.055309
1722054649.1949,2024-07-26 21:30:49.194,1,false,0.444397,-0.299988,0.584106,0.609375,0.871595,-0.438239,-0.126833,-0.046251,0.001788,0.055356
1722054649.2262,2024-07-26 21:30:49.226,2,false,0.444356,-0.300049,0.584106,0.609375,0.888197,-0.447028,-0.132692,-0.046204,0.001805,0.055363
1722054649.2574,2024-07-26 21:30:49.257,3,false,0.444397,-0.299988,0.584106,0.609375,0.888197,-0.447028,-0.132692,-0.046088,0.001881,0.055369
1722054649.2887,2024-07-26 21:30:49.288,4,false,0.444439,-0.299927,0.584106,0.609375,0.878431,-0.448981,-0.134646,-0.045984,0.001949,0.055411
1722054649.3199,2024-07-26 21:30:49.319,5,false,0.444478,-0.299988,0.584045,0.609375,0.876967,-0.436774,-0.122927,-0.04589,0.001949,0.055387
1722054649.3512,2024-07-26 21:30:49.351,6,false,0.44448,-0.299866,0.584106,0.609375,0.876967,-0.436774,-0.122927,-0.045805,0.00195,0.055366
1722054649.3824,2024-07-26 21:30:49.382,7,false,0.444522,-0.299927,0.584106,0.609314,0.885267,-0.443122,-0.133669,-0.045815,0.001865,0.05542
1722054649.4137,2024-07-26 21:30:49.413,8,false,0.444683,-0.299927,0.583984,0.609314,0.882338,-0.436774,-0.135622,-0.045811,0.001837,0.05542
1722054649.4449,2024-07-26 21:30:49.444,9,false,0.444561,-0.299988,0.584045,0.609314,0.882338,-0.436774,-0.135622,-0.045808,0.001812,0.05542
1722054649.4762,2024-07-26 21:30:49.476,10,false,0.444522,-0.299927,0.584106,0.609314,0.883803,-0.441657,-0.14197,-0.045865,0.00185,0.055359
1722054649.5074,2024-07-26 21:30:49.507,11,false,0.444604,-0.300049,0.584045,0.609253,0.883803,-0.441657,-0.14197,-0.045918,0.001885,0.055305
1722054649.5387,2024-07-26 21:30:49.538,12,false,0.444648,-0.299988,0.584106,0.609192,0.886244,-0.444099,-0.135622,-0.045977,0.001904,0.055304
1722054649.5699,2024-07-26 21:30:49.569,13,false,0.44473,-0.30011,0.584045,0.609131,0.875502,-0.446052,-0.11902,-0.045969,0.00186,0.055242
1722054649.6012,2024-07-26 21:30:49.601,14,false,0.444603,-0.300293,0.583984,0.609192,0.875502,-0.446052,-0.11902,-0.045962,0.001821,0.055187
1722054649.6324,2024-07-26 21:30:49.632,15,false,0.444642,-0.300354,0.583923,0.609192,0.877943,-0.442145,-0.134157,-0.045846,0.001834,0.05521
1722054649.6637,2024-07-26 21:30:49.663,16,false,0.444474,-0.300354,0.583923,0.609314,0.873549,-0.449958,-0.128298,-0.045925,0.001907,0.055268
1722054649.6949,2024-07-26 21:30:49.694,17,false,0.444599,-0.300293,0.583923,0.609253,0.873549,-0.449958,-0.128298,-0.045995,0.001912,0.05532
1722054649.7262,2024-07-26 21:30:49.726,18,false,0.4446,-0.300415,0.583923,0.609192,0.886732,-0.44361,-0.132692,-0.046059,0.001855,0.05533
1722054649.7574,2024-07-26 21:30:49.757,19,false,0.444723,-0.300476,0.583862,0.609131,0.887221,-0.452399,-0.133181,-0.045994,0.001889,0.055376
1722054649.7887,2024-07-26 21:30:49.788,20,false,0.444837,-0.300415,0.583679,0.609253,0.887221,-0.452399,-0.133181,-0.045936,0.00192,0.055417
1722054649.8199,2024-07-26 21:30:49.819,21,false,0.44488,-0.300476,0.583679,0.609192,0.895521,-0.448493,-0.134646,-0.04603,0.001874,0.055429
1722054649.8512,2024-07-26 21:30:49.851,22,false,0.444635,-0.30072,0.58374,0.609192,0.884779,-0.440681,-0.132692,-0.04598,0.001919,0.055477
1722054649.8824,2024-07-26 21:30:49.882,23,false,0.444553,-0.300598,0.583801,0.609253,0.889662,-0.430426,-0.131228,-0.045923,0.0018,0.055386
1722054649.9137,2024-07-26 21:30:49.913,24,false,0.444383,-0.300598,0.58374,0.609436,0.876967,-0.434821,-0.129763,-0.045762,0.001791,0.055402
1722054649.9449,2024-07-26 21:30:49.944,25,false,0.444299,-0.300598,0.58374,0.609497,0.881361,-0.445563,-0.127321,-0.045776,0.001758,0.055331
1722054649.9762,2024-07-26 21:30:49.976,26,false,0.444344,-0.300537,0.583801,0.609436,0.881361,-0.445563,-0.127321,-0.045788,0.001729,0.055266
1722054650.0074,2024-07-26 21:30:50.007,27,false,0.444428,-0.300659,0.583801,0.609314,0.887221,-0.434333,-0.131716,-0.045787,0.001751,0.055221
1722054650.0387,2024-07-26 21:30:50.038,28,false,0.444227,-0.30072,0.583923,0.609314,0.887709,-0.440192,-0.130739,-0.045871,0.001772,0.05518
1722054650.0699,2024-07-26 21:30:50.069,29,false,0.444144,-0.300842,0.583923,0.609314,0.887709,-0.440192,-0.130739,-0.045947,0.00179,0.055143
