Time,Timestamp,Counter,Interpolated,Accelerometer X,Accelerometer Y,Accelerometer Z,Magnetometer X,Magnetometer Y,Magnetometer Z,Quaternion 0,Quaternion 1,Quaternion 2,Quaternion 3
1722051821.9409,2024-07-26 20:43:41.940,2,false,0.446587,-0.30127,0.585205,0.606079,0.884779,-0.438239,-0.133181,-0.045579,0.001963,0.055237
1722051821.9721,2024-07-26 20:43:41.972,3,false,0.446421,-0.30127,0.585205,0.606201,0.884779,-0.438239,-0.133181,-0.045574,0.001975,0.055207
1722051822.0034,2024-07-26 20:43:42.003,4,false,0.446462,-0.301086,0.585205,0.606262,0.883314,-0.437751,-0.118044,-0.04557,0.001985,0.055155
1722051822.0346,2024-07-26 20:43:42.034,5,false,0.446423,-0.301147,0.585266,0.606201,0.885756,-0.431891,-0.130739,-0.045701,0.002018,0.055133
1722051822.0659,2024-07-26 20:43:42.065,6,false,0.446503,-0.301147,0.585205,0.606201,0.885756,-0.431891,-0.130739,-0.045818,0.002048,0.055113
1722051822.0971,2024-07-26 20:43:42.097,7,false,0.446589,-0.301025,0.585266,0.60614,0.878431,-0.438239,-0.120974,-0.045814,0.002002,0.055119
1722051822.1284,2024-07-26 20:43:42.128,8,false,0.446594,-0.301025,0.585388,0.606018,0.872084,-0.447028,-0.12781,-0.045762,0.002009,0.0551
1722051822.1596,2024-07-26 20:43:42.159,9,false,0.446503,-0.301147,0.585205,0.606201,0.883314,-0.437751,-0.118044,-0.045934,0.00204,0.055145
1722051822.1909,2024-07-26 20:43:42.190,10,false,0.446718,-0.300964,0.585388,0.605957,0.880873,-0.434333,-0.126833,-0.046089,0.002068,0.055184
1722051822.2221,2024-07-26 20:43:42.222,11,false,0.446597,-0.301025,0.585449,0.605957,0.871595,-0.433845,-0.128298,-0.04618,0.001935,0.055184
1722051822.2534,2024-07-26 20:43:42.253,12,false,0.4466,-0.301147,0.58551,0.605835,0.872084,-0.424079,-0.122438,-0.046176,0.001888,0.055256
1722051822.2846,2024-07-26 20:43:42.284,13,false,0.446479,-0.301086,0.585571,0.605896,0.872084,-0.424079,-0.122438,-0.046112,0.001809,0.055224
1722051822.3159,2024-07-26 20:43:42.315,14,false,0.446274,-0.301025,0.585632,0.606018,0.899916,-0.433845,-0.118532,-0.046054,0.001713,0.055195
1722051822.3471,2024-07-26 20:43:42.347,15,false,0.446197,-0.301025,0.585754,0.605957,0.87013,-0.445075,-0.130251,-0.046026,0.00164,0.055193
1722051822.3784,2024-07-26 20:43:42.378,16,false,0.446398,-0.300964,0.585632,0.605957,0.87013,-0.445075,-0.130251,-0.046063,0.00161,0.055252
1722051822.4096,2024-07-26 20:43:42.409,17,false,0.446113,-0.300903,0.585754,0.606079,0.871107,-0.435309,-0.140017,-0.046046,0.001681,0.055281
1722051822.4409,2024-07-26 20:43:42.440,18,false,0.446151,-0.30072,0.585693,0.606201,0.888685,-0.435309,-0.126833,-0.046019,0.001672,0.055295
1722051822.4721,2024-07-26 20:43:42.472,19,false,0.446272,-0.300659,0.585632,0.606201,0.888685,-0.435309,-0.126833,-0.045995,0.001663,0.055308
1722051822.5034,2024-07-26 20:43:42.503,20,false,0.446231,-0.300598,0.585632,0.606262,0.880385,-0.435798,-0.140017,-0.0459,0.001631,0.05538
1722051822.5346,2024-07-26 20:43:42.534,21,false,0.446355,-0.300659,0.585632,0.60614,0.887709,-0.437263,-0.126833,-0.0459,0.001614,0.055311
1722051822.5659,2024-07-26 20:43:42.565,22,false,0.446317,-0.30072,0.585693,0.606079,0.87306,-0.42652,-0.128786,-0.045839,0.001722,0.055371
1722051822.5971,2024-07-26 20:43:42.597,23,false,0.446157,-0.30072,0.585815,0.606079,0.876967,-0.42945,-0.138552,-0.045857,0.001647,0.055437
1722051822.6284,2024-07-26 20:43:42.628,24,false,0.446157,-0.30072,0.585815,0.606079,0.878431,-0.425544,-0.125368,-0.045935,0.001702,0.055313
1722051822.6596,2024-07-26 20:43:42.659,25,false,0.446035,-0.300781,0.585876,0.606079,0.878431,-0.425544,-0.125368,-0.046004,0.001752,0.055202
1722051822.6909,2024-07-26 20:43:42.690,26,false,0.445994,-0.300842,0.585876,0.606079,0.879896,-0.448005,-0.134646,-0.045994,0.001784,0.055212
1722051822.7221,2024-07-26 20:43:42.722,27,false,0.446035,-0.300659,0.585876,0.60614,0.884291,-0.433845,-0.135134,-0.045874,0.001825,0.055232
1722051822.7534,2024-07-26 20:43:42.753,28,false,0.445911,-0.30072,0.585876,0.606201,0.884291,-0.433845,-0.135134,-0.045877,0.001911,0.055239
1722051822.7846,2024-07-26 20:43:42.784,29,false,0.445869,-0.300659,0.585876,0.606262,0.885756,-0.443122,-0.128786,-0.045928,0.00194,0.055196
1722051822.8159,2024-07-26 20:43:42.815,30,false,0.445863,-0.300659,0.585754,0.606384,0.881849,-0.436774,-0.122927,-0.045949,0.001892,0.055121
1722051822.8471,2024-07-26 20:43:42.847,31,false,0.445982,-0.300598,0.585632,0.606445,0.881849,-0.436774,-0.122927,-0.045969,0.00185,0.055053
1722051822.8784,2024-07-26 20:43:42.878,0,false,0.445982,-0.300598,0.585632,0.606445,0.876967,-0.430426,-0.122438,-0.045913,0.001945,0.055066
1722051822.9096,2024-07-26 20:43:42.909,1,false,0.446227,-0.300476,0.585571,0.606384,0.889174,-0.440192,-0.135622,-0.045973,0.001897,0.055052
1722051822.9409,2024-07-26 20:43:42.940,2,false,0.445982,-0.300598,0.585632,0.606445,0.885756,-0.443122,-0.128786,-0.045855,0.001866,0.055089
1722051822.9721,2024-07-26 20:43:42.972,3,false,0.446347,-0.300659,0.585449,0.606323,0.879408,-0.444099,-0.129274,-0.04575,0.001838,0.055122
1722051823.0034,2024-07-26 20:43:43.003,4,false,0.44635,-0.300781,0.58551,0.606201,0.87013,-0.436286,-0.132204,-0.045863,0.001825,0.055079
1722051823.0346,2024-07-26 20:43:43.034,5,false,0.446229,-0.300842,0.585571,0.606201,0.888197,-0.433356,-0.132692,-0.045866,0.001814,0.05504
1722051823.0659,2024-07-26 20:43:43.065,6,false,0.446065,-0.30072,0.585632,0.606323,0.888197,-0.433356,-0.132692,-0.045918,0.001852,0.055139
1722051823.0971,2024-07-26 20:43:43.097,7,false,0.445902,-0.30072,0.585693,0.606384,0.890639,-0.419684,-0.128298,-0.045916,0.001899,0.055118
1722051823.1284,2024-07-26 20:43:43.128,8,false,0.44586,-0.300659,0.585693,0.606445,0.877455,-0.450446,-0.132692,-0.045854,0.001917,0.0551
1722051823.1596,2024-07-26 20:43:43.159,9,false,0.445862,-0.300537,0.585754,0.606445,0.877455,-0.450446,-0.132692,-0.045907,0.001945,0.055132
1722051823.1909,2024-07-26 20:43:43.190,10,false,0.445823,-0.300476,0.585815,0.606445,0.881849,-0.434821,-0.122927,-0.045894,0.001945,0.055039
1722051823.2221,2024-07-26 20:43:43.222,11,false,0.445821,-0.300476,0.585754,0.606506,0.879408,-0.449958,-0.128298,-0.045809,0.002093,0.055114
1722051823.2534,2024-07-26 20:43:43.253,12,false,0.446017,-0.300537,0.58551,0.606567,0.879408,-0.449958,-0.128298,-0.045733,0.002225,0.055181
1722051823.2846,2024-07-26 20:43:43.284,13,false,0.446104,-0.300659,0.585571,0.606384,0.879408,-0.449958,-0.128298,-0.045664,0.002345,0.055241
1722051823.3159,2024-07-26 20:43:43.315,14,false,0.446267,-0.300659,0.58551,0.606323,0.883803,-0.434821,-0.12488,-0.0457,0.002269,0.055296
1722051823.3471,2024-07-26 20:43:43.347,15,false,0.446306,-0.300842,0.585449,0.606262,0.888685,-0.436774,-0.123415,-0.04572,0.002213,0.055418
1722051823.3784,2024-07-26 20:43:43.378,16,false,0.44623,-0.300964,0.585571,0.60614,0.888685,-0.436774,-0.123415,-0.045737,0.002162,0.055528
1722051823.4096,2024-07-26 20:43:43.409,17,false,0.446393,-0.300964,0.58551,0.606079,0.878431,-0.436774,-0.133181,-0.045754,0.002178,0.05542
1722051823.4409,2024-07-26 20:43:43.440,18,false,0.446266,-0.301147,0.585449,0.60614,0.883803,-0.431891,-0.124392,-0.045756,0.00218,0.055237
1722051823.4721,2024-07-26 20:43:43.472,19,false,0.446181,-0.30127,0.585388,0.606201,0.883803,-0.431891,-0.124392,-0.045868,0.002109,0.055207
1722051823.5034,2024-07-26 20:43:43.503,20,false,0.4461,-0.301147,0.585449,0.606262,0.877943,-0.436774,-0.133669,-0.045761,0.002154,0.055289
1722051823.5346,2024-07-26 20:43:43.534,21,false,0.445979,-0.301208,0.58551,0.606262,0.879896,-0.430426,-0.125856,-0.045787,0.002158,0.055388
1722051823.5659,2024-07-26 20:43:43.565,22,false,0.445937,-0.301025,0.58551,0.606384,0.879896,-0.430426,-0.125856,-0.045811,0.002162,0.055476
1722051823.5971,2024-07-26 20:43:43.597,23,false,0.445937,-0.301025,0.58551,0.606384,0.871595,-0.448981,-0.137575,-0.045844,0.002117,0.05552
1722051823.6284,2024-07-26 20:43:43.628,24,false,0.446056,-0.301086,0.585388,0.606384,0.893568,-0.436286,-0.132692,-0.045837,0.00204,0.055449
1722051823.6596,2024-07-26 20:43:43.659,25,false,0.446177,-0.301025,0.585327,0.606384,0.893568,-0.436286,-0.132692,-0.045831,0.00197,0.055385
1722051823.6909,2024-07-26 20:43:43.690,26,false,0.445937,-0.301025,0.58551,0.606384,0.87599,-0.428962,-0.122438,-0.045862,0.00198,0.05534
1722051823.7221,2024-07-26 20:43:43.722,27,false,0.446296,-0.301086,0.585205,0.606384,0.87599,-0.428962,-0.122438,-0.04589,0.00199,0.055299
1722051823.7534,2024-07-26 20:43:43.753,28,false,0.446545,-0.301086,0.585205,0.606201,0.885756,-0.434333,-0.133181,-0.045843,0.001986,0.055189
1722051823.7846,2024-07-26 20:43:43.784,29,false,0.446504,-0.30127,0.585205,0.60614,0.888197,-0.419196,-0.133181,-0.045946,0.002056,0.0552
1722051823.8159,2024-07-26 20:43:43.815,30,false,0.446631,-0.301208,0.585266,0.606018,0.888197,-0.419196,-0.133181,-0.046039,0.002119,0.05521
1722051823.8471,2024-07-26 20:43:43.847,31,false,0.446549,-0.301331,0.585266,0.606018,0.897963,-0.448981,-0.12781,-0.045976,0.002102,0.055109
1722051823.8784,2024-07-26 20:43:43.878,0,false,0.446422,-0.301392,0.585205,0.60614,0.87892,-0.434333,-0.127321,-0.045883,0.002112,0.05514
1722051823.9096,2024-07-26 20:43:43.909,1,false,0.446258,-0.30127,0.585266,0.606262,0.87892,-0.434333,-0.127321,-0.045872,0.002035,0.055229
1722051823.9409,2024-07-26 20:43:43.940,2,false,0.446344,-0.30127,0.585327,0.60614,0.877455,-0.434821,-0.130251,-0.045924,0.00199,0.055224
1722051823.9721,2024-07-26 20:43:43.972,3,false,0.446504,-0.301392,0.585205,0.606079,0.87599,-0.44361,-0.126345,-0.045995,0.001925,0.055305
1722051824.0034,2024-07-26 20:43:44.003,4,false,0.44659,-0.301392,0.585266,0.605957,0.87599,-0.44361,-0.126345,-0.045887,0.001904,0.05539
1722051824.0346,2024-07-26 20:43:44.034,5,false,0.446588,-0.301514,0.585205,0.605957,0.886732,-0.421149,-0.12781,-0.045901,0.00197,0.055332
1722051824.0659,2024-07-26 20:43:44.065,6,false,0.446792,-0.301697,0.585144,0.605774,0.888685,-0.440192,-0.125856,-0.045913,0.002054,0.055426
1722051824.0971,2024-07-26 20:43:44.097,7,false,0.446873,-0.301819,0.585083,0.605713,0.882338,-0.428473,-0.12781,-0.046058,0.001946,0.055401
1722051824.1284,2024-07-26 20:43:44.128,8,false,0.446834,-0.30188,0.585144,0.605652,0.884291,-0.429938,-0.130739,-0.04603,0.002008,0.055379
1722051824.1596,2024-07-26 20:43:44.159,9,false,0.446958,-0.301941,0.585144,0.60553,0.888197,-0.424567,-0.131716,-0.04598,0.001978,0.055371
1722051824.1909,2024-07-26 20:43:44.190,10,false,0.446793,-0.302063,0.585144,0.605591,0.888197,-0.424567,-0.131716,-0.045935,0.001951,0.055363
1722051824.2221,2024-07-26 20:43:44.222,11,false,0.446912,-0.302246,0.585022,0.60553,0.875013,-0.430426,-0.125368,-0.045981,0.001951,0.055247
1722051824.2534,2024-07-26 20:43:44.253,12,false,0.447033,-0.302307,0.584961,0.605469,0.883803,-0.422614,-0.128786,-0.045936,0.001988,0.055216
1722051824.2846,2024-07-26 20:43:44.284,13,false,0.446791,-0.302307,0.585083,0.60553,0.883803,-0.422614,-0.128786,-0.04581,0.002021,0.055224
1722051824.3159,2024-07-26 20:43:44.315,14,false,0.446752,-0.302246,0.585144,0.60553,0.876478,-0.443122,-0.128786,-0.045868,0.001917,0.055244
1722051824.3471,2024-07-26 20:43:44.347,15,false,0.446835,-0.302368,0.585144,0.605408,0.876478,-0.435798,-0.116091,-0.045859,0.002006,0.055261
1722051824.3784,2024-07-26 20:43:44.378,16,false,0.446796,-0.302429,0.585205,0.605347,0.876478,-0.435798,-0.116091,-0.045851,0.002086,0.055277
1722051824.4096,2024-07-26 20:43:44.409,17,false,0.446714,-0.302551,0.585205,0.605347,0.881361,-0.431891,-0.128786,-0.045929,0.002036,0.055292
1722051824.4409,2024-07-26 20:43:44.440,18,false,0.446876,-0.302551,0.585144,0.605286,0.874037,-0.443122,-0.128786,-0.045877,0.001991,0.05528
1722051824.4721,2024-07-26 20:43:44.472,19,false,0.446796,-0.302429,0.585205,0.605347,0.876478,-0.443122,-0.128786,-0.045879,0.001963,0.055282
1722051824.5034,2024-07-26 20:43:44.503,20,false,0.446959,-0.302673,0.585144,0.605164,0.880385,-0.430426,-0.123903,-0.045881,0.001938,0.055284
1722051824.5346,2024-07-26 20:43:44.534,21,false,0.446964,-0.302673,0.585266,0.605042,0.897475,-0.439216,-0.123415,-0.045993,0.001902,0.055358
1722051824.5659,2024-07-26 20:43:44.565,22,false,0.446964,-0.302795,0.585266,0.60498,0.888685,-0.42652,-0.137575,-0.046008,0.00192,0.055413
1722051824.5971,2024-07-26 20:43:44.597,23,false,0.446964,-0.302795,0.585266,0.60498,0.888685,-0.42652,-0.137575,-0.046021,0.001935,0.055463
1722051824.6284,2024-07-26 20:43:44.628,24,false,0.446918,-0.302734,0.585144,0.605164,0.891615,-0.433356,-0.125368,-0.046009,0.002035,0.055471
1722051824.6596,2024-07-26 20:43:44.659,25,false,0.446714,-0.302795,0.585205,0.605225,0.885267,-0.443122,-0.13611,-0.046096,0.001917,0.0556
1722051824.6909,2024-07-26 20:43:44.690,26,false,0.446879,-0.302673,0.585205,0.605164,0.885267,-0.443122,-0.13611,-0.046174,0.00181,0.055717
1722051824.7221,2024-07-26 20:43:44.722,27,false,0.446998,-0.302612,0.585083,0.605225,0.889662,-0.434333,-0.12488,-0.046146,0.001739,0.055699
1722051824.7534,2024-07-26 20:43:44.753,28,false,0.447122,-0.302673,0.585083,0.605103,0.891615,-0.431403,-0.135134,-0.046341,0.001614,0.055684
1722051824.7846,2024-07-26 20:43:44.784,29,false,0.447237,-0.302734,0.5849,0.605164,0.891615,-0.431403,-0.135134,-0.046517,0.001502,0.05567
1722051824.8159,2024-07-26 20:43:44.815,30,false,0.447154,-0.302856,0.5849,0.605164,0.881361,-0.433845,-0.121462,-0.046443,0.001547,0.05573
1722051824.8471,2024-07-26 20:43:44.847,31,false,0.447231,-0.303223,0.584778,0.605042,0.892103,-0.43238,-0.126345,-0.046486,0.001624,0.055687
1722051824.8784,2024-07-26 20:43:44.878,0,false,0.447314,-0.303223,0.584778,0.60498,0.875502,-0.427497,-0.134646,-0.046342,0.001681,0.055746
1722051824.9096,2024-07-26 20:43:44.909,1,false,0.447231,-0.303467,0.584778,0.604919,0.883803,-0.427497,-0.124392,-0.046212,0.001831,0.055713
1722051824.9409,2024-07-26 20:43:44.940,2,false,0.447272,-0.303406,0.584778,0.604919,0.887709,-0.432868,-0.131228,-0.046205,0.001879,0.055733
1722051824.9721,2024-07-26 20:43:44.972,3,false,0.447269,-0.30365,0.584717,0.604858,0.887709,-0.432868,-0.131228,-0.046199,0.001923,0.05575
1722051825.0034,2024-07-26 20:43:45.003,4,false,0.447145,-0.303589,0.584717,0.60498,0.889174,-0.434333,-0.129763,-0.046157,0.001865,0.055754
1722051825.0346,2024-07-26 20:43:45.034,5,false,0.447104,-0.303528,0.584717,0.605042,0.876478,-0.424079,-0.126345,-0.046046,0.00196,0.05566
1722051825.0659,2024-07-26 20:43:45.065,6,false,0.446988,-0.303467,0.5849,0.60498,0.876478,-0.424079,-0.126345,-0.046104,0.001959,0.055611
1722051825.0971,2024-07-26 20:43:45.097,7,false,0.447112,-0.303528,0.5849,0.604858,0.886732,-0.42945,-0.119509,-0.045962,0.001934,0.055641
1722051825.1284,2024-07-26 20:43:45.128,8,false,0.446988,-0.303467,0.5849,0.60498,0.889174,-0.434333,-0.129763,-0.04598,0.002034,0.055668
1722051825.1596,2024-07-26 20:43:45.159,9,false,0.447109,-0.303772,0.584839,0.604797,0.880873,-0.430915,-0.133669,-0.045923,0.001964,0.055643
1722051825.1909,2024-07-26 20:43:45.190,10,false,0.447191,-0.303772,0.584839,0.604736,0.888197,-0.436774,-0.125856,-0.045823,0.002,0.055548
1722051825.2221,2024-07-26 20:43:45.222,11,false,0.447153,-0.303589,0.5849,0.604797,0.888197,-0.436774,-0.125856,-0.045879,0.001898,0.055572
1722051825.2534,2024-07-26 20:43:45.253,12,false,0.447191,-0.303894,0.584839,0.604675,0.881849,-0.439704,-0.11902,-0.045894,0.001903,0.055496
1722051825.2846,2024-07-26 20:43:45.284,13,false,0.447194,-0.303894,0.5849,0.604614,0.891127,-0.419196,-0.124392,-0.046004,0.001969,0.055427
1722051825.3159,2024-07-26 20:43:45.315,14,false,0.446992,-0.303955,0.585022,0.604614,0.891127,-0.419196,-0.124392,-0.046103,0.002029,0.055365
1722051825.3471,2024-07-26 20:43:45.347,15,false,0.446992,-0.303955,0.585022,0.604614,0.877455,-0.440681,-0.130739,-0.046022,0.002058,0.055359
1722051825.3784,2024-07-26 20:43:45.378,16,false,0.446703,-0.304016,0.585022,0.604797,0.885756,-0.441657,-0.130251,-0.045973,0.002059,0.055414
1722051825.4096,2024-07-26 20:43:45.409,17,false,0.446582,-0.303955,0.585083,0.604858,0.885756,-0.441657,-0.130251,-0.045929,0.002061,0.055463
1722051825.4409,2024-07-26 20:43:45.440,18,false,0.446582,-0.303955,0.585083,0.604858,0.884779,-0.436286,-0.119997,-0.045938,0.002111,0.055581
1722051825.4721,2024-07-26 20:43:45.472,19,false,0.446626,-0.303894,0.585144,0.604797,0.891127,-0.427985,-0.132692,-0.045922,0.002218,0.055626
1722051825.5034,2024-07-26 20:43:45.503,20,false,0.446626,-0.303894,0.585144,0.604797,0.891127,-0.427985,-0.132692,-0.045908,0.002313,0.055667
1722051825.5346,2024-07-26 20:43:45.534,21,false,0.446665,-0.303955,0.585083,0.604797,0.876967,-0.441169,-0.118044,-0.045821,0.002302,0.055703
1722051825.5659,2024-07-26 20:43:45.565,22,false,0.446585,-0.303955,0.585144,0.604797,0.881361,-0.437751,-0.131716,-0.04589,0.002303,0.055687
1722051825.5971,2024-07-26 20:43:45.597,23,false,0.446747,-0.304077,0.585083,0.604675,0.881361,-0.437751,-0.131716,-0.04583,0.002305,0.055734
1722051825.6284,2024-07-26 20:43:45.628,24,false,0.446788,-0.304016,0.585083,0.604675,0.881361,-0.437751,-0.131716,-0.045776,0.002306,0.055776
1722051825.6596,2024-07-26 20:43:45.659,25,false,0.446791,-0.304138,0.585144,0.604553,0.89015,-0.425055,-0.130739,-0.045691,0.002283,0.055789
1722051825.6909,2024-07-26 20:43:45.690,26,false,0.446625,-0.304138,0.585144,0.604675,0.886244,-0.439216,-0.122927,-0.04565,0.002226,0.055703
1722051825.7221,2024-07-26 20:43:45.722,27,false,0.446584,-0.304199,0.585144,0.604675,0.886244,-0.439216,-0.122927,-0.045614,0.002174,0.055626
1722051825.7534,2024-07-26 20:43:45.753,28,false,0.446496,-0.304077,0.585022,0.604919,0.891615,-0.43238,-0.121462,-0.045582,0.002103,0.055593
1722051825.7846,2024-07-26 20:43:45.784,29,false,0.446497,-0.303833,0.585022,0.605042,0.883803,-0.42652,-0.117067,-0.045601,0.002027,0.055613
1722051825.8159,2024-07-26 20:43:45.815,30,false,0.446421,-0.303467,0.585144,0.605164,0.883803,-0.42652,-0.117067,-0.045619,0.001959,0.05563
1722051825.8471,2024-07-26 20:43:45.847,31,false,0.446379,-0.303406,0.585144,0.605225,0.883803,-0.43238,-0.136599,-0.045635,0.001958,0.055695
1722051825.8784,2024-07-26 20:43:45.878,0,false,0.446586,-0.303345,0.585144,0.605103,0.879408,-0.444587,-0.129274,-0.045502,0.001909,0.05568
1722051825.9096,2024-07-26 20:43:45.909,1,false,0.446625,-0.303284,0.585083,0.605164,0.879408,-0.444587,-0.129274,-0.045603,0.00195,0.055641
1722051825.9409,2024-07-26 20:43:45.940,2,false,0.446622,-0.303162,0.585022,0.605286,0.897475,-0.439216,-0.132204,-0.045633,0.001987,0.055607
1722051825.9721,2024-07-26 20:43:45.972,3,false,0.446625,-0.303162,0.585083,0.605225,0.881849,-0.427497,-0.130739,-0.045623,0.001959,0.055601
1722051826.0034,2024-07-26 20:43:46.003,4,false,0.446625,-0.303284,0.585083,0.605164,0.883803,-0.43238,-0.136599,-0.045663,0.001922,0.055619
1722051826.0346,2024-07-26 20:43:46.034,5,false,0.446587,-0.303101,0.585144,0.605225,0.876967,-0.430915,-0.136599,-0.045589,0.001876,0.055612
1722051826.0659,2024-07-26 20:43:46.065,6,false,0.446543,-0.30304,0.585083,0.605347,0.877943,-0.430426,-0.124392,-0.04562,0.001957,0.055544
1722051826.0971,2024-07-26 20:43:46.097,7,false,0.446383,-0.302795,0.585205,0.605469,0.89601,-0.440681,-0.130251,-0.045648,0.001908,0.055519
1722051826.1284,2024-07-26 20:43:46.128,8,false,0.446214,-0.302673,0.585144,0.605713,0.89601,-0.440681,-0.130251,-0.045673,0.001864,0.055497
1722051826.1596,2024-07-26 20:43:46.159,9,false,0.446051,-0.302551,0.585205,0.605835,0.889662,-0.433845,-0.129274,-0.045695,0.001885,0.055502
1722051826.1909,2024-07-26 20:43:46.190,10,false,0.445849,-0.302368,0.585327,0.605957,0.887709,-0.439216,-0.125856,-0.045789,0.001916,0.05553
1722051826.2221,2024-07-26 20:43:46.222,11,false,0.445855,-0.302124,0.585449,0.605957,0.887709,-0.439216,-0.125856,-0.045861,0.001895,0.055532
1722051826.2534,2024-07-26 20:43:46.253,12,false,0.44581,-0.302063,0.585388,0.606079,0.89015,-0.448005,-0.119997,-0.045865,0.001913,0.055569
1722051826.2846,2024-07-26 20:43:46.284,13,false,0.44573,-0.301941,0.585449,0.60614,0.895033,-0.433845,-0.123903,-0.04588,0.001942,0.055591
1722051826.3159,2024-07-26 20:43:46.315,14,false,0.44581,-0.301819,0.585388,0.606201,0.895033,-0.433845,-0.123903,-0.045895,0.001967,0.055611
1722051826.3471,2024-07-26 20:43:46.347,15,false,0.445727,-0.301941,0.585388,0.606201,0.884291,-0.431403,-0.134646,-0.045895,0.002064,0.055702
1722051826.3784,2024-07-26 20:43:46.378,16,false,0.445809,-0.301697,0.585388,0.606262,0.888685,-0.433356,-0.133669,-0.045859,0.002065,0.0556
1722051826.4096,2024-07-26 20:43:46.409,17,false,0.445853,-0.301514,0.585449,0.606262,0.877455,-0.438239,-0.129274,-0.045851,0.002054,0.055521
1722051826.4409,2024-07-26 20:43:46.440,18,false,0.445648,-0.301453,0.58551,0.606384,0.881849,-0.430426,-0.136599,-0.045819,0.00208,0.055499
1722051826.4721,2024-07-26 20:43:46.472,19,false,0.445565,-0.301453,0.58551,0.606445,0.892592,-0.427008,-0.128786,-0.045827,0.002043,0.055442
1722051826.5034,2024-07-26 20:43:46.503,20,false,0.445484,-0.301331,0.585571,0.606506,0.892592,-0.427008,-0.128786,-0.045785,0.002058,0.055477
1722051826.5346,2024-07-26 20:43:46.534,21,false,0.445445,-0.301147,0.585632,0.606567,0.881849,-0.433845,-0.141482,-0.04576,0.001938,0.055459
1722051826.5659,2024-07-26 20:43:46.565,22,false,0.445325,-0.300964,0.585754,0.606628,0.87892,-0.444587,-0.134157,-0.045774,0.001915,0.055467
1722051826.5971,2024-07-26 20:43:46.597,23,false,0.445366,-0.300903,0.585754,0.606628,0.87892,-0.444587,-0.134157,-0.045896,0.002004,0.055548
1722051826.6284,2024-07-26 20:43:46.628,24,false,0.445324,-0.300842,0.585754,0.606689,0.875502,-0.439704,-0.134646,-0.045921,0.002011,0.055487
1722051826.6596,2024-07-26 20:43:46.659,25,false,0.445363,-0.300781,0.585693,0.60675,0.887709,-0.44361,-0.12488,-0.045919,0.002103,0.055492
1722051826.6909,2024-07-26 20:43:46.690,26,false,0.445362,-0.300659,0.585693,0.606812,0.887709,-0.44361,-0.12488,-0.045917,0.002186,0.055497
1722051826.7221,2024-07-26 20:43:46.722,27,false,0.44532,-0.300598,0.585693,0.606873,0.881849,-0.445563,-0.128786,-0.045964,0.002126,0.055526
1722051826.7534,2024-07-26 20:43:46.753,28,false,0.445406,-0.300598,0.585754,0.60675,0.885267,-0.441169,-0.130739,-0.045811,0.002109,0.055552
1722051826.7846,2024-07-26 20:43:46.784,29,false,0.445362,-0.300659,0.585693,0.606812,0.875502,-0.439704,-0.134646,-0.045759,0.002166,0.055551
1722051826.8159,2024-07-26 20:43:46.815,30,false,0.445286,-0.300415,0.585876,0.606812,0.891127,-0.429938,-0.130739,-0.045785,0.00217,0.055538
1722051826.8471,2024-07-26 20:43:46.847,31,false,0.44516,-0.300354,0.585876,0.606934,0.882826,-0.439216,-0.13904,-0.045748,0.002172,0.055527
1722051826.8784,2024-07-26 20:43:46.878,0,false,0.445034,-0.300171,0.585876,0.607117,0.885267,-0.449958,-0.139528,-0.045836,0.002114,0.055516
1722051826.9096,2024-07-26 20:43:46.909,1,false,0.444871,-0.300171,0.585938,0.607178,0.885267,-0.449958,-0.139528,-0.045696,0.002183,0.055445
1722051826.9409,2024-07-26 20:43:46.940,2,false,0.445037,-0.300171,0.585938,0.607056,0.892103,-0.447028,-0.134646,-0.045667,0.002221,0.055443
1722051826.9721,2024-07-26 20:43:46.972,3,false,0.444995,-0.30011,0.585938,0.607117,0.868666,-0.439216,-0.133669,-0.045629,0.002085,0.055514
1722051827.0034,2024-07-26 20:43:47.003,4,false,0.445036,-0.300049,0.585938,0.607117,0.868666,-0.439216,-0.133669,-0.045559,0.002047,0.055456
1722051827.0346,2024-07-26 20:43:47.034,5,false,0.445203,-0.300049,0.585938,0.606995,0.874037,-0.445563,-0.126833,-0.045654,0.002013,0.05544
1722051827.0659,2024-07-26 20:43:47.065,6,false,0.445242,-0.30011,0.585876,0.606995,0.886244,-0.44654,-0.124392,-0.045739,0.001958,0.055511
1722051827.0971,2024-07-26 20:43:47.097,7,false,0.445405,-0.30011,0.585815,0.606934,0.886244,-0.44654,-0.124392,-0.045816,0.001909,0.055576
1722051827.1284,2024-07-26 20:43:47.128,8,false,0.445609,-0.300293,0.585693,0.606812,0.886244,-0.44654,-0.124392,-0.045886,0.001865,0.055633
1722051827.1596,2024-07-26 20:43:47.159,9,false,0.445565,-0.300354,0.585632,0.606873,0.888197,-0.432868,-0.130251,-0.045826,0.001849,0.055539
1722051827.1909,2024-07-26 20:43:47.190,10,false,0.445645,-0.300354,0.585571,0.606873,0.875502,-0.443122,-0.137575,-0.045772,0.001896,0.055539
1722051827.2221,2024-07-26 20:43:47.222,11,false,0.445601,-0.300415,0.58551,0.606934,0.875502,-0.443122,-0.137575,-0.045724,0.001938,0.05554
1722051827.2534,2024-07-26 20:43:47.253,12,false,0.445639,-0.300354,0.585449,0.606995,0.885267,-0.427985,-0.12488,-0.045803,0.001915,0.055516
1722051827.2846,2024-07-26 20:43:47.284,13,false,0.445556,-0.300354,0.585449,0.607056,0.887221,-0.441169,-0.123415,-0.04569,0.001748,0.055555
1722051827.3159,2024-07-26 20:43:47.315,14,false,0.445353,-0.300293,0.585571,0.607117,0.887221,-0.441169,-0.123415,-0.045699,0.00183,0.055517
1722051827.3471,2024-07-26 20:43:47.347,15,false,0.445274,-0.300049,0.585693,0.607178,0.87892,-0.440681,-0.12195,-0.045682,0.001854,0.05552
1722051827.3784,2024-07-26 20:43:47.378,16,false,0.445315,-0.299988,0.585693,0.607178,0.881849,-0.438239,-0.137087,-0.045643,0.001815,0.055498
1722051827.4096,2024-07-26 20:43:47.409,17,false,0.445355,-0.300049,0.585632,0.607178,0.881849,-0.438239,-0.137087,-0.045607,0.00178,0.055478
1722051827.4409,2024-07-26 20:43:47.440,18,false,0.445434,-0.299927,0.585571,0.607239,0.893568,-0.44361,-0.136599,-0.045588,0.001676,0.055533
1722051827.4721,2024-07-26 20:43:47.472,19,false,0.445519,-0.299805,0.585632,0.607178,0.889662,-0.430915,-0.140505,-0.045619,0.00174,0.055534
1722051827.5034,2024-07-26 20:43:47.503,20,false,0.445482,-0.299988,0.585693,0.607056,0.889662,-0.430915,-0.140505,-0.045647,0.001798,0.055535
1722051827.5346,2024-07-26 20:43:47.534,21,false,0.445434,-0.299927,0.585571,0.607239,0.87892,-0.436774,-0.123415,-0.045611,0.001765,0.055511
1722051827.5659,2024-07-26 20:43:47.565,22,false,0.445645,-0.299988,0.585632,0.606995,0.87892,-0.436774,-0.123415,-0.045579,0.001735,0.05549
1722051827.5971,2024-07-26 20:43:47.597,23,false,0.445605,-0.300171,0.585632,0.606934,0.884291,-0.43238,-0.13611,-0.045623,0.001634,0.055569
1722051827.6284,2024-07-26 20:43:47.628,24,false,0.445652,-0.30011,0.585754,0.606812,0.885267,-0.428962,-0.129274,-0.045602,0.001605,0.055407
1722051827.6596,2024-07-26 20:43:47.659,25,false,0.44561,-0.300049,0.585754,0.606873,0.885267,-0.428962,-0.129274,-0.045583,0.00164,0.055445
1722051827.6909,2024-07-26 20:43:47.690,26,false,0.445648,-0.299988,0.585693,0.606934,0.884291,-0.442634,-0.117067,-0.045675,0.001623,0.055394
1722051827.7221,2024-07-26 20:43:47.722,27,false,0.445565,-0.299988,0.585693,0.606995,0.884779,-0.454841,-0.132204,-0.045747,0.00168,0.055397
1722051827.7534,2024-07-26 20:43:47.753,28,false,0.44569,-0.300049,0.585693,0.606873,0.884779,-0.454841,-0.132204,-0.045811,0.001732,0.055399
1722051827.7846,2024-07-26 20:43:47.784,29,false,0.445809,-0.30011,0.585571,0.606873,0.887709,-0.430915,-0.125368,-0.045673,0.001876,0.055279
1722051827.8159,2024-07-26 20:43:47.815,30,false,0.445768,-0.300171,0.585571,0.606873,0.884779,-0.430426,-0.129763,-0.045659,0.001957,0.055367
1722051827.8471,2024-07-26 20:43:47.847,31,false,0.445807,-0.30011,0.58551,0.606934,0.884779,-0.430426,-0.129763,-0.045671,0.001981,0.055409
1722051827.8784,2024-07-26 20:43:47.878,0,false,0.445884,-0.30011,0.585388,0.606995,0.884291,-0.439704,-0.119509,-0.045804,0.001856,0.055349
1722051827.9096,2024-07-26 20:43:47.909,1,false,0.445726,-0.30011,0.585571,0.606934,0.882338,-0.442145,-0.125368,-0.045764,0.001951,0.055478
1722051827.9409,2024-07-26 20:43:47.940,2,false,0.445854,-0.299805,0.585693,0.606873,0.892592,-0.448493,-0.119509,-0.045924,0.002012,0.055472
1722051827.9721,2024-07-26 20:43:47.972,3,false,0.445732,-0.299744,0.585754,0.606934,0.882826,-0.445075,-0.138064,-0.045873,0.002007,0.055406
1722051828.0034,2024-07-26 20:43:48.003,4,false,0.445694,-0.299805,0.585815,0.606873,0.871107,-0.436774,-0.115114,-0.045888,0.001904,0.055469
1722051828.0346,2024-07-26 20:43:48.034,5,false,0.445685,-0.299805,0.585632,0.607056,0.871107,-0.436774,-0.115114,-0.045938,0.00197,0.055439
1722051828.0659,2024-07-26 20:43:48.065,6,false,0.445525,-0.299805,0.585754,0.607056,0.884291,-0.42945,-0.122438,-0.045897,0.001919,0.055425
1722051828.0971,2024-07-26 20:43:48.097,7,false,0.44536,-0.299683,0.585815,0.607178,0.887709,-0.435309,-0.131228,-0.045922,0.001813,0.055474
1722051828.1284,2024-07-26 20:43:48.128,8,false,0.445401,-0.299622,0.585815,0.607178,0.887709,-0.435309,-0.131228,-0.045944,0.001717,0.055517
1722051828.1596,2024-07-26 20:43:48.159,9,false,0.445359,-0.299561,0.585815,0.607239,0.874037,-0.435309,-0.130739,-0.045988,0.001765,0.055483
1722051828.1909,2024-07-26 20:43:48.190,10,false,0.445362,-0.299561,0.585876,0.607178,0.881849,-0.440681,-0.132204,-0.046126,0.001784,0.055477
1722051828.2221,2024-07-26 20:43:48.222,11,false,0.445523,-0.299561,0.585754,0.607178,0.881849,-0.440681,-0.132204,-0.046018,0.00174,0.055447
1722051828.2534,2024-07-26 20:43:48.253,12,false,0.445606,-0.299561,0.585754,0.607117,0.881849,-0.44654,-0.126345,-0.046018,0.001761,0.055444
1722051828.2846,2024-07-26 20:43:48.284,13,false,0.445816,-0.2995,0.585815,0.606934,0.881849,-0.437263,-0.130251,-0.045994,0.001866,0.055356
1722051828.3159,2024-07-26 20:43:48.315,14,false,0.445523,-0.299561,0.585754,0.607178,0.874037,-0.435309,-0.130739,-0.045875,0.001935,0.055363
1722051828.3471,2024-07-26 20:43:48.347,15,false,0.445739,-0.2995,0.585938,0.606873,0.884779,-0.41236,-0.123415,-0.045987,0.001876,0.055369
1722051828.3784,2024-07-26 20:43:48.378,16,false,0.445572,-0.2995,0.585938,0.606995,0.886732,-0.434821,-0.140993,-0.045978,0.001896,0.055423
1722051828.4096,2024-07-26 20:43:48.409,17,false,0.445323,-0.2995,0.585938,0.607178,0.866712,-0.437263,-0.117556,-0.045982,0.001865,0.055459
1722051828.4409,2024-07-26 20:43:48.440,18,false,0.445196,-0.299561,0.585876,0.6073,0.866712,-0.437263,-0.117556,-0.045986,0.001837,0.055492
1722051828.4721,2024-07-26 20:43:48.472,19,false,0.445234,-0.2995,0.585815,0.607361,0.879408,-0.441169,-0.120974,-0.046002,0.001824,0.055436
1722051828.5034,2024-07-26 20:43:48.503,20,false,0.445313,-0.299377,0.585754,0.607422,0.880873,-0.435309,-0.118044,-0.045931,0.00185,0.055386
1722051828.5346,2024-07-26 20:43:48.534,21,false,0.445316,-0.299377,0.585815,0.607361,0.880873,-0.435309,-0.118044,-0.04583,0.001811,0.05534
1722051828.5659,2024-07-26 20:43:48.565,22,false,0.445316,-0.299377,0.585815,0.607361,0.87306,-0.44361,-0.133181,-0.045751,0.001728,0.055434
1722051828.5971,2024-07-26 20:43:48.597,23,false,0.445434,-0.299316,0.585693,0.607422,0.886732,-0.440192,-0.123903,-0.045876,0.001592,0.055469
1722051828.6284,2024-07-26 20:43:48.628,24,false,0.445558,-0.299255,0.585693,0.607361,0.886732,-0.440192,-0.123903,-0.045988,0.001469,0.055501
1722051828.6596,2024-07-26 20:43:48.659,25,false,0.445516,-0.299438,0.585632,0.607361,0.887709,-0.441657,-0.138064,-0.045808,0.001603,0.055554
1722051828.6909,2024-07-26 20:43:48.690,26,false,0.445473,-0.299622,0.585571,0.607361,0.883803,-0.453376,-0.131716,-0.045732,0.00154,0.055602
1722051828.7221,2024-07-26 20:43:48.722,27,false,0.445431,-0.299561,0.585571,0.607422,0.877943,-0.438727,-0.128786,-0.045712,0.001557,0.055632
1722051828.7534,2024-07-26 20:43:48.753,28,false,0.445429,-0.299438,0.585571,0.607483,0.881849,-0.447028,-0.133181,-0.045645,0.001597,0.05555
1722051828.7846,2024-07-26 20:43:48.784,29,false,0.445307,-0.299377,0.585632,0.607544,0.891127,-0.435798,-0.134646,-0.045622,0.001632,0.055476
1722051828.8159,2024-07-26 20:43:48.815,30,false,0.445266,-0.299438,0.585632,0.607544,0.891127,-0.435798,-0.134646,-0.045601,0.001664,0.05541
1722051828.8471,2024-07-26 20:43:48.847,31,false,0.445184,-0.299316,0.585693,0.607605,0.874525,-0.442634,-0.123903,-0.045741,0.001632,0.055386
1722051828.8784,2024-07-26 20:43:48.878,0,false,0.445142,-0.299255,0.585693,0.607666,0.879896,-0.432868,-0.132692,-0.045781,0.001701,0.055402
1722051828.9096,2024-07-26 20:43:48.909,1,false,0.445268,-0.299316,0.585693,0.607544,0.879896,-0.432868,-0.132692,-0.045817,0.001763,0.055416
1722051828.9409,2024-07-26 20:43:48.940,2,false,0.445224,-0.299377,0.585632,0.607605,0.887221,-0.452888,-0.128786,-0.045679,0.001867,0.055478
1722051828.9721,2024-07-26 20:43:48.972,3,false,0.445307,-0.299377,0.585632,0.607544,0.873549,-0.43238,-0.134646,-0.045774,0.0019,0.055386
1722051829.0034,2024-07-26 20:43:49.003,4,false,0.445467,-0.299377,0.58551,0.607544,0.873549,-0.43238,-0.134646,-0.045787,0.001881,0.055402
1722051829.0346,2024-07-26 20:43:49.034,5,false,0.445673,-0.299438,0.585449,0.607422,0.889174,-0.432868,-0.125368,-0.045761,0.001803,0.055392
1722051829.0659,2024-07-26 20:43:49.065,6,false,0.445753,-0.299438,0.585388,0.607422,0.883314,-0.454353,-0.134157,-0.045738,0.00183,0.055529
1722051829.0971,2024-07-26 20:43:49.097,7,false,0.445467,-0.299377,0.58551,0.607544,0.887221,-0.452888,-0.128786,-0.045718,0.00194,0.055591
1722051829.1284,2024-07-26 20:43:49.128,8,false,0.445917,-0.299438,0.585327,0.607361,0.889662,-0.435798,-0.131716,-0.045638,0.001917,0.055525
1722051829.1596,2024-07-26 20:43:49.159,9,false,0.445916,-0.299683,0.585266,0.6073,0.883314,-0.446052,-0.132204,-0.045664,0.001896,0.055588
1722051829.1909,2024-07-26 20:43:49.190,10,false,0.445789,-0.299744,0.585205,0.607422,0.879896,-0.450446,-0.132692,-0.045651,0.001877,0.05562
1722051829.2221,2024-07-26 20:43:49.222,11,false,0.445625,-0.299744,0.585266,0.607483,0.879896,-0.450446,-0.132692,-0.045468,0.001848,0.055637
1722051829.2534,2024-07-26 20:43:49.253,12,false,0.445545,-0.299744,0.585327,0.607483,0.876478,-0.435309,-0.122438,-0.045426,0.001761,0.055737
1722051829.2846,2024-07-26 20:43:49.284,13,false,0.445589,-0.299683,0.585388,0.607422,0.874525,-0.434333,-0.132692,-0.045498,0.001793,0.055694
1722051829.3159,2024-07-26 20:43:49.315,14,false,0.44571,-0.299622,0.585327,0.607422,0.874525,-0.434333,-0.132692,-0.045562,0.001821,0.055654
1722051829.3471,2024-07-26 20:43:49.347,15,false,0.445991,-0.299805,0.585083,0.607361,0.882338,-0.432868,-0.119509,-0.045511,0.001798,0.055509
1722051829.3784,2024-07-26 20:43:49.378,16,false,0.445991,-0.299805,0.585083,0.607361,0.885756,-0.445563,-0.130251,-0.045464,0.001813,0.0555
1722051829.4096,2024-07-26 20:43:49.409,17,false,0.445995,-0.299927,0.585144,0.607239,0.885756,-0.445563,-0.130251,-0.045422,0.001827,0.055492
1722051829.4409,2024-07-26 20:43:49.440,18,false,0.446081,-0.300293,0.585144,0.606995,0.885756,-0.445563,-0.130251,-0.045384,0.00184,0.055485
1722051829.4721,2024-07-26 20:43:49.472,19,false,0.445956,-0.300232,0.585144,0.607117,0.87892,-0.446052,-0.130739,-0.045399,0.001863,0.055491
1722051829.5034,2024-07-26 20:43:49.503,20,false,0.445877,-0.300354,0.585205,0.607056,0.889662,-0.440192,-0.131228,-0.045498,0.001872,0.055362
1722051829.5346,2024-07-26 20:43:49.534,21,false,0.445838,-0.300293,0.585266,0.607056,0.889662,-0.440192,-0.131228,-0.045587,0.00188,0.055245
1722051829.5659,2024-07-26 20:43:49.565,22,false,0.445675,-0.300415,0.585327,0.607056,0.879408,-0.432868,-0.125856,-0.045618,0.001961,0.055275
1722051829.5971,2024-07-26 20:43:49.597,23,false,0.445673,-0.300171,0.585327,0.607178,0.895033,-0.441657,-0.132692,-0.045695,0.001984,0.055229
1722051829.6284,2024-07-26 20:43:49.628,24,false,0.445837,-0.300171,0.585266,0.607117,0.895033,-0.441657,-0.132692,-0.045728,0.002042,0.05537
1722051829.6596,2024-07-26 20:43:49.659,25,false,0.446003,-0.300171,0.585266,0.606995,0.879408,-0.448493,-0.132692,-0.045696,0.002033,0.055351
1722051829.6909,2024-07-26 20:43:49.690,26,false,0.446083,-0.300171,0.585205,0.606995,0.881361,-0.443122,-0.129274,-0.045741,0.002062,0.055309
1722051829.7221,2024-07-26 20:43:49.722,27,false,0.446084,-0.300293,0.585205,0.606934,0.881361,-0.443122,-0.129274,-0.045781,0.002088,0.055271
1722051829.7534,2024-07-26 20:43:49.753,28,false,0.446322,-0.300415,0.584961,0.606934,0.903334,-0.441657,-0.135134,-0.045744,0.002038,0.055225
1722051829.7846,2024-07-26 20:43:49.784,29,false,0.446279,-0.30072,0.5849,0.606873,0.882826,-0.436286,-0.133181,-0.045674,0.00209,0.055281
1722051829.8159,2024-07-26 20:43:49.815,30,false,0.446366,-0.300842,0.584961,0.606689,0.882826,-0.436286,-0.133181,-0.045843,0.001979,0.055332
1722051829.8471,2024-07-26 20:43:49.847,31,false,0.446322,-0.300415,0.584961,0.606934,0.890639,-0.437751,-0.12488,-0.0458,0.002062,0.055255
1722051829.8784,2024-07-26 20:43:49.878,0,false,0.446494,-0.301025,0.585022,0.606445,0.890639,-0.437751,-0.12488,-0.045761,0.002136,0.055186
1722051829.9096,2024-07-26 20:43:49.909,1,false,0.446495,-0.301147,0.585022,0.606384,0.887709,-0.430426,-0.130251,-0.045677,0.002033,0.055161
1722051829.9409,2024-07-26 20:43:49.940,2,false,0.446329,-0.301147,0.585022,0.606506,0.888197,-0.427497,-0.12488,-0.045638,0.002061,0.055199
1722051829.9721,2024-07-26 20:43:49.972,3,false,0.44616,-0.301147,0.584961,0.606689,0.888197,-0.427497,-0.12488,-0.045603,0.002087,0.055234
1722051830.0034,2024-07-26 20:43:50.003,4,false,0.446118,-0.301086,0.584961,0.60675,0.885756,-0.436774,-0.123415,-0.045657,0.00211,0.055301
1722051830.0346,2024-07-26 20:43:50.034,5,false,0.446239,-0.301025,0.5849,0.60675,0.883803,-0.42652,-0.131716,-0.045596,0.00218,0.055435
1722051830.0659,2024-07-26 20:43:50.065,6,false,0.446325,-0.301025,0.584961,0.606628,0.883803,-0.42652,-0.131716,-0.045687,0.002109,0.055385
1722051830.0971,2024-07-26 20:43:50.097,7,false,0.446322,-0.301025,0.5849,0.606689,0.893568,-0.439216,-0.134157,-0.045672,0.002105,0.055315
1722051830.1284,2024-07-26 20:43:50.128,8,false,0.44632,-0.301147,0.584839,0.606689,0.888197,-0.438727,-0.132204,-0.045695,0.002188,0.055375
1722051830.1596,2024-07-26 20:43:50.159,9,false,0.446318,-0.30127,0.584778,0.606689,0.888197,-0.438727,-0.132204,-0.045715,0.002262,0.055428
1722051830.1909,2024-07-26 20:43:50.190,10,false,0.446279,-0.301331,0.584839,0.606628,0.886244,-0.42359,-0.129274,-0.045807,0.002194,0.055427
1722051830.2221,2024-07-26 20:43:50.222,11,false,0.446281,-0.301697,0.584839,0.606445,0.881361,-0.429938,-0.119997,-0.045779,0.002121,0.055414
1722051830.2534,2024-07-26 20:43:50.253,12,false,0.446447,-0.301941,0.584839,0.606201,0.883314,-0.439216,-0.123903,-0.045743,0.002166,0.05533
1722051830.2846,2024-07-26 20:43:50.284,13,false,0.446448,-0.302063,0.584839,0.60614,0.891127,-0.435309,-0.122927,-0.045697,0.002096,0.055351
1722051830.3159,2024-07-26 20:43:50.315,14,false,0.446445,-0.302185,0.584778,0.60614,0.885756,-0.434333,-0.132692,-0.04573,0.002106,0.055272
1722051830.3471,2024-07-26 20:43:50.347,15,false,0.446528,-0.302185,0.584778,0.606079,0.885756,-0.434333,-0.132692,-0.045759,0.002115,0.055202
1722051830.3784,2024-07-26 20:43:50.378,16,false,0.446528,-0.302185,0.584778,0.606079,0.882826,-0.426032,-0.114626,-0.045736,0.002111,0.055175
1722051830.4096,2024-07-26 20:43:50.409,17,false,0.446528,-0.302185,0.584778,0.606079,0.888685,-0.430426,-0.12781,-0.045765,0.002095,0.0552
1722051830.4409,2024-07-26 20:43:50.440,18,false,0.446655,-0.302124,0.584839,0.605957,0.888685,-0.430426,-0.12781,-0.04579,0.002081,0.055222
1722051830.4721,2024-07-26 20:43:50.472,19,false,0.446738,-0.302124,0.584839,0.605896,0.889662,-0.439704,-0.123903,-0.045716,0.002093,0.055242
1722051830.5034,2024-07-26 20:43:50.503,20,false,0.446901,-0.302246,0.584778,0.605774,0.87892,-0.431891,-0.120974,-0.045734,0.002091,0.055369
1722051830.5346,2024-07-26 20:43:50.534,21,false,0.446939,-0.302307,0.584717,0.605774,0.87892,-0.431891,-0.120974,-0.045751,0.002089,0.055484
1722051830.5659,2024-07-26 20:43:50.565,22,false,0.447143,-0.302246,0.584656,0.605713,0.872572,-0.438727,-0.120974,-0.045778,0.002137,0.055539
1722051830.5971,2024-07-26 20:43:50.597,23,false,0.446901,-0.302246,0.584778,0.605774,0.872572,-0.438727,-0.120974,-0.045802,0.002179,0.055588
1722051830.6284,2024-07-26 20:43:50.628,24,false,0.447187,-0.302307,0.584717,0.605591,0.887221,-0.43238,-0.132692,-0.045775,0.002108,0.055645
1722051830.6596,2024-07-26 20:43:50.659,25,false,0.447193,-0.302307,0.584839,0.605469,0.89015,-0.423102,-0.120974,-0.045702,0.002092,0.055622
1722051830.6909,2024-07-26 20:43:50.690,26,false,0.447149,-0.302368,0.584778,0.60553,0.89015,-0.423102,-0.120974,-0.045636,0.002079,0.055602
1722051830.7221,2024-07-26 20:43:50.722,27,false,0.446951,-0.302307,0.584961,0.60553,0.880873,-0.430426,-0.119509,-0.045626,0.002042,0.055596
1722051830.7534,2024-07-26 20:43:50.753,28,false,0.446826,-0.302246,0.584961,0.605652,0.887709,-0.427985,-0.120485,-0.045604,0.002094,0.055554
1722051830.7846,2024-07-26 20:43:50.784,29,false,0.446791,-0.302307,0.585083,0.60553,0.887709,-0.427985,-0.120485,-0.045585,0.002141,0.055517
1722051830.8159,2024-07-26 20:43:50.815,30,false,0.446796,-0.302307,0.585205,0.605408,0.873549,-0.441169,-0.118532,-0.045555,0.002159,0.055373
1722051830.8471,2024-07-26 20:43:50.847,31,false,0.446716,-0.302551,0.585266,0.605286,0.891127,-0.425544,-0.128298,-0.045541,0.002138,0.055439
1722051830.8784,2024-07-26 20:43:50.878,0,false,0.446794,-0.302673,0.585144,0.605286,0.891127,-0.425544,-0.128298,-0.045528,0.00212,0.055498
1722051830.9096,2024-07-26 20:43:50.909,1,false,0.446758,-0.302612,0.585266,0.605225,0.883803,-0.43238,-0.114626,-0.045528,0.00214,0.055502
1722051830.9409,2024-07-26 20:43:50.940,2,false,0.446636,-0.302795,0.585327,0.605164,0.87599,-0.427985,-0.122438,-0.045529,0.002072,0.055506
1722051830.9721,2024-07-26 20:43:50.972,3,false,0.447082,-0.303223,0.585144,0.604797,0.87599,-0.427985,-0.122438,-0.045554,0.002024,0.055498
1722051831.0034,2024-07-26 20:43:51.003,4,false,0.447044,-0.303162,0.585205,0.604797,0.87599,-0.427985,-0.122438,-0.045576,0.00198,0.05549
1722051831.0346,2024-07-26 20:43:51.034,5,false,0.446923,-0.303101,0.585266,0.604858,0.888685,-0.433356,-0.12488,-0.045572,0.001928,0.055532
1722051831.0659,2024-07-26 20:43:51.065,6,false,0.446887,-0.303162,0.585388,0.604736,0.883803,-0.433356,-0.128786,-0.045617,0.001955,0.055557
1722051831.0971,2024-07-26 20:43:51.097,7,false,0.446845,-0.303223,0.585388,0.604736,0.883803,-0.433356,-0.128786,-0.045608,0.002114,0.055617
1722051831.1284,2024-07-26 20:43:51.128,8,false,0.446887,-0.303162,0.585388,0.604736,0.881361,-0.43238,-0.128786,-0.045625,0.00222,0.055634
1722051831.1596,2024-07-26 20:43:51.159,9,false,0.446724,-0.30304,0.585449,0.604858,0.883314,-0.421149,-0.119509,-0.045775,0.002169,0.055808
1722051831.1909,2024-07-26 20:43:51.190,10,false,0.446564,-0.302795,0.585571,0.60498,0.883314,-0.421149,-0.119509,-0.045677,0.001988,0.055806
1722051831.2221,2024-07-26 20:43:51.222,11,false,0.446526,-0.302734,0.585632,0.60498,0.868177,-0.434821,-0.119509,-0.045663,0.002083,0.05567
1722051831.2534,2024-07-26 20:43:51.253,12,false,0.446485,-0.302673,0.585632,0.605042,0.891127,-0.439216,-0.12781,-0.045625,0.002045,0.055572
1722051831.2846,2024-07-26 20:43:51.284,13,false,0.446603,-0.302734,0.58551,0.605042,0.891127,-0.439216,-0.12781,-0.045592,0.002012,0.055483
1722051831.3159,2024-07-26 20:43:51.315,14,false,0.446603,-0.302856,0.58551,0.60498,0.890639,-0.42945,-0.126833,-0.04572,0.002042,0.055428
1722051831.3471,2024-07-26 20:43:51.347,15,false,0.446644,-0.302917,0.58551,0.604919,0.879896,-0.425544,-0.126345,-0.045701,0.001948,0.055379
1722051831.3784,2024-07-26 20:43:51.378,16,false,0.446603,-0.302734,0.58551,0.605042,0.868177,-0.434821,-0.119509,-0.045672,0.001949,0.055383
1722051831.4096,2024-07-26 20:43:51.409,17,false,0.446647,-0.302917,0.585571,0.604858,0.890639,-0.439216,-0.129763,-0.045646,0.001949,0.055387
1722051831.4409,2024-07-26 20:43:51.440,18,false,0.446691,-0.302979,0.585632,0.604736,0.887709,-0.425544,-0.127321,-0.045745,0.001949,0.05539
1722051831.4721,2024-07-26 20:43:51.472,19,false,0.446528,-0.302979,0.585693,0.604797,0.89015,-0.422126,-0.119509,-0.045699,0.001986,0.055405
1722051831.5034,2024-07-26 20:43:51.503,20,false,0.446443,-0.302856,0.585632,0.60498,0.89015,-0.422126,-0.119509,-0.045658,0.00202,0.055419
1722051831.5346,2024-07-26 20:43:51.534,21,false,0.44628,-0.302734,0.585693,0.605103,0.880385,-0.425055,-0.126833,-0.045694,0.002013,0.055395
1722051831.5659,2024-07-26 20:43:51.565,22,false,0.446156,-0.302795,0.585693,0.605164,0.875013,-0.442145,-0.12488,-0.045666,0.002007,0.055434
1722051831.5971,2024-07-26 20:43:51.597,23,false,0.446071,-0.302917,0.585632,0.605225,0.875013,-0.442145,-0.12488,-0.045641,0.002002,0.055469
1722051831.6284,2024-07-26 20:43:51.628,24,false,0.446112,-0.302979,0.585632,0.605164,0.892592,-0.438727,-0.11902,-0.045569,0.002094,0.055513
1722051831.6596,2024-07-26 20:43:51.659,25,false,0.446148,-0.30304,0.58551,0.605225,0.896498,-0.434333,-0.131228,-0.045675,0.002044,0.055504
1722051831.6909,2024-07-26 20:43:51.690,26,false,0.446187,-0.303101,0.585449,0.605225,0.896498,-0.434333,-0.131228,-0.045771,0.001998,0.055496
1722051831.7221,2024-07-26 20:43:51.722,27,false,0.446225,-0.303162,0.585388,0.605225,0.887221,-0.433356,-0.132692,-0.045735,0.001957,0.055464
1722051831.7534,2024-07-26 20:43:51.753,28,false,0.446349,-0.303101,0.585388,0.605164,0.887709,-0.427008,-0.131228,-0.045812,0.001993,0.055411
1722051831.7846,2024-07-26 20:43:51.784,29,false,0.446275,-0.302979,0.585571,0.605103,0.883314,-0.423102,-0.123415,-0.045723,0.001965,0.055485
1722051831.8159,2024-07-26 20:43:51.815,30,false,0.44644,-0.302856,0.585571,0.605042,0.901869,-0.432868,-0.128298,-0.04579,0.001866,0.055479
1722051831.8471,2024-07-26 20:43:51.847,31,false,0.446446,-0.302734,0.585693,0.60498,0.881849,-0.426032,-0.125856,-0.045788,0.001838,0.055558
1722051831.8784,2024-07-26 20:43:51.878,0,false,0.44641,-0.302795,0.585815,0.604858,0.881849,-0.426032,-0.125856,-0.045787,0.001813,0.05563
1722051831.9096,2024-07-26 20:43:51.909,1,false,0.446327,-0.302673,0.585815,0.60498,0.883803,-0.418219,-0.125856,-0.045786,0.001851,0.055646
1722051831.9409,2024-07-26 20:43:51.940,2,false,0.446286,-0.30249,0.585815,0.605103,0.877455,-0.430915,-0.12195,-0.045846,0.001862,0.055599
1722051831.9721,2024-07-26 20:43:51.972,3,false,0.446045,-0.302368,0.585999,0.605164,0.877455,-0.430915,-0.12195,-0.0459,0.001932,0.05552
1722051832.0034,2024-07-26 20:43:52.003,4,false,0.446128,-0.302246,0.585999,0.605164,0.877455,-0.436774,-0.137087,-0.045913,0.001934,0.055486
1722051832.0346,2024-07-26 20:43:52.034,5,false,0.446045,-0.302124,0.585999,0.605286,0.890639,-0.436774,-0.135622,-0.045911,0.001948,0.055406
1722051832.0659,2024-07-26 20:43:52.065,6,false,0.446089,-0.302063,0.58606,0.605225,0.890639,-0.436774,-0.135622,-0.04591,0.001961,0.055334
1722051832.0971,2024-07-26 20:43:52.097,7,false,0.446004,-0.302185,0.585999,0.605286,0.883314,-0.443122,-0.126345,-0.045933,0.001972,0.055245
1722051832.1284,2024-07-26 20:43:52.128,8,false,0.446084,-0.302063,0.585938,0.605347,0.87892,-0.436286,-0.125856,-0.04604,0.002031,0.055299
1722051832.1596,2024-07-26 20:43:52.159,9,false,0.446089,-0.302063,0.58606,0.605225,0.877455,-0.436774,-0.137087,-0.045928,0.00206,0.05536
1722051832.1909,2024-07-26 20:43:52.190,10,false,0.446125,-0.302124,0.585938,0.605286,0.891127,-0.440192,-0.134646,-0.045913,0.002013,0.055403
1722051832.2221,2024-07-26 20:43:52.222,11,false,0.446213,-0.302124,0.58606,0.605103,0.883803,-0.457282,-0.12488,-0.045899,0.001848,0.055344
1722051832.2534,2024-07-26 20:43:52.253,12,false,0.446172,-0.302185,0.58606,0.605103,0.874037,-0.418708,-0.125368,-0.045924,0.001871,0.055364
1722051832.2846,2024-07-26 20:43:52.284,13,false,0.446048,-0.302246,0.58606,0.605164,0.874037,-0.418708,-0.125368,-0.045946,0.001891,0.055382
1722051832.3159,2024-07-26 20:43:52.315,14,false,0.445965,-0.302246,0.58606,0.605225,0.893568,-0.43238,-0.117067,-0.045965,0.001812,0.055398
1722051832.3471,2024-07-26 20:43:52.347,15,false,0.445926,-0.302185,0.586121,0.605225,0.876967,-0.431403,-0.123903,-0.045971,0.001826,0.055461
1722051832.3784,2024-07-26 20:43:52.378,16,false,0.445848,-0.302063,0.586243,0.605225,0.876967,-0.431403,-0.123903,-0.045976,0.001839,0.055518
1722051832.4096,2024-07-26 20:43:52.409,17,false,0.445851,-0.302185,0.586304,0.605103,0.885267,-0.444587,-0.126833,-0.045932,0.00174,0.05552
1722051832.4409,2024-07-26 20:43:52.440,18,false,0.445854,-0.302185,0.586365,0.605042,0.886244,-0.436286,-0.129763,-0.04588,0.001725,0.055572
1722051832.4721,2024-07-26 20:43:52.472,19,false,0.445815,-0.302124,0.586426,0.605042,0.886244,-0.436286,-0.129763,-0.045833,0.001711,0.055618
1722051832.5034,2024-07-26 20:43:52.503,20,false,0.445983,-0.302002,0.586487,0.604919,0.886244,-0.436286,-0.129763,-0.045791,0.001699,0.055659
1722051832.5346,2024-07-26 20:43:52.534,21,false,0.445861,-0.302063,0.586548,0.604919,0.885267,-0.439216,-0.12488,-0.045875,0.001724,0.055574
1722051832.5659,2024-07-26 20:43:52.565,22,false,0.445983,-0.302246,0.586487,0.604797,0.879896,-0.441169,-0.128298,-0.045816,0.001698,0.055485
1722051832.5971,2024-07-26 20:43:52.597,23,false,0.446066,-0.302368,0.586487,0.604675,0.879896,-0.441169,-0.128298,-0.045763,0.001675,0.055406
1722051832.6284,2024-07-26 20:43:52.628,24,false,0.446109,-0.302429,0.586548,0.604553,0.89308,-0.44654,-0.133181,-0.045777,0.001678,0.05548
1722051832.6596,2024-07-26 20:43:52.659,25,false,0.44599,-0.302368,0.58667,0.604553,0.883803,-0.442634,-0.134157,-0.04574,0.00173,0.055475
1722051832.6909,2024-07-26 20:43:52.690,26,false,0.445988,-0.302368,0.586609,0.604614,0.883803,-0.442634,-0.134157,-0.045671,0.001716,0.055591
1722051832.7221,2024-07-26 20:43:52.722,27,false,0.445944,-0.302429,0.586548,0.604675,0.89308,-0.42652,-0.122927,-0.045718,0.001813,0.055586
1722051832.7534,2024-07-26 20:43:52.753,28,false,0.445822,-0.30249,0.586609,0.604675,0.876478,-0.432868,-0.120974,-0.045895,0.001839,0.05568
1722051832.7846,2024-07-26 20:43:52.784,29,false,0.445869,-0.302429,0.586731,0.604553,0.876478,-0.432868,-0.120974,-0.046054,0.001863,0.055764
1722051832.8159,2024-07-26 20:43:52.815,30,false,0.445791,-0.302307,0.586853,0.604553,0.87892,-0.449958,-0.134646,-0.046099,0.001908,0.055681
1722051832.8471,2024-07-26 20:43:52.847,31,false,0.445708,-0.302307,0.586853,0.604614,0.89308,-0.431403,-0.130251,-0.046079,0.001986,0.055667
1722051832.8784,2024-07-26 20:43:52.878,0,false,0.445871,-0.302307,0.586792,0.604553,0.89308,-0.431403,-0.130251,-0.046061,0.002056,0.055654
1722051832.9096,2024-07-26 20:43:52.909,1,false,0.445791,-0.302307,0.586853,0.604553,0.903822,-0.440192,-0.12195,-0.04596,0.002046,0.055607
1722051832.9409,2024-07-26 20:43:52.940,2,false,0.445912,-0.302368,0.586792,0.604492,0.903822,-0.440192,-0.12195,-0.045868,0.002037,0.055564
1722051832.9721,2024-07-26 20:43:52.972,3,false,0.445954,-0.302429,0.586792,0.604431,0.887221,-0.423102,-0.119997,-0.045945,0.002114,0.055586
1722051833.0034,2024-07-26 20:43:53.003,4,false,0.446075,-0.302368,0.586731,0.604431,0.885267,-0.429938,-0.140505,-0.046087,0.002122,0.05563
1722051833.0346,2024-07-26 20:43:53.034,5,false,0.446243,-0.302368,0.586792,0.604248,0.885267,-0.429938,-0.140505,-0.046214,0.00213,0.055671
1722051833.0659,2024-07-26 20:43:53.065,6,false,0.446282,-0.302429,0.586731,0.604248,0.872084,-0.438727,-0.122438,-0.046183,0.002185,0.055633
1722051833.0971,2024-07-26 20:43:53.097,7,false,0.446321,-0.302368,0.58667,0.604309,0.877455,-0.447028,-0.12195,-0.046264,0.002247,0.055673
1722051833.1284,2024-07-26 20:43:53.128,8,false,0.446158,-0.302368,0.586731,0.60437,0.877455,-0.447028,-0.12195,-0.046338,0.002303,0.055709
1722051833.1596,2024-07-26 20:43:53.159,9,false,0.446158,-0.302246,0.586731,0.604431,0.888197,-0.435798,-0.12488,-0.046245,0.002232,0.055802
1722051833.1909,2024-07-26 20:43:53.190,10,false,0.446161,-0.302246,0.586792,0.60437,0.885267,-0.439704,-0.119509,-0.04621,0.002241,0.055752
1722051833.2221,2024-07-26 20:43:53.222,11,false,0.446202,-0.302185,0.586792,0.60437,0.885267,-0.439704,-0.119509,-0.046204,0.002309,0.055621
1722051833.2534,2024-07-26 20:43:53.253,12,false,0.446321,-0.302124,0.58667,0.604431,0.877943,-0.42945,-0.122927,-0.046161,0.002335,0.055577
1722051833.2846,2024-07-26 20:43:53.284,13,false,0.446277,-0.302307,0.586609,0.604431,0.881849,-0.439216,-0.123415,-0.046135,0.002309,0.05561
1722051833.3159,2024-07-26 20:43:53.315,14,false,0.446199,-0.302307,0.586731,0.60437,0.887709,-0.437263,-0.134646,-0.04616,0.002237,0.055567
1722051833.3471,2024-07-26 20:43:53.347,15,false,0.446243,-0.302246,0.586792,0.604309,0.885756,-0.438239,-0.130739,-0.046158,0.002282,0.055454
1722051833.3784,2024-07-26 20:43:53.378,16,false,0.446447,-0.302185,0.586731,0.604248,0.880385,-0.439216,-0.125368,-0.046084,0.002212,0.055329
1722051833.4096,2024-07-26 20:43:53.409,17,false,0.446406,-0.302124,0.586731,0.604309,0.880385,-0.439216,-0.125368,-0.046016,0.00215,0.055216
1722051833.4409,2024-07-26 20:43:53.440,18,false,0.446326,-0.302002,0.586792,0.60437,0.888685,-0.433845,-0.121462,-0.046078,0.002191,0.055273
1722051833.4721,2024-07-26 20:43:53.472,19,false,0.446163,-0.302124,0.586853,0.60437,0.885756,-0.433845,-0.117067,-0.046011,0.002131,0.055288
1722051833.5034,2024-07-26 20:43:53.503,20,false,0.446207,-0.302063,0.586914,0.604309,0.885756,-0.433845,-0.117067,-0.045951,0.002076,0.055301
1722051833.5346,2024-07-26 20:43:53.534,21,false,0.446207,-0.302185,0.586914,0.604248,0.887221,-0.428473,-0.119509,-0.046044,0.00204,0.055301
1722051833.5659,2024-07-26 20:43:53.565,22,false,0.446085,-0.302124,0.586975,0.604309,0.89601,-0.434333,-0.12781,-0.046041,0.00197,0.05535
1722051833.5971,2024-07-26 20:43:53.597,23,false,0.446,-0.302002,0.586914,0.604492,0.89601,-0.434333,-0.12781,-0.046039,0.001907,0.055393
1722051833.6284,2024-07-26 20:43:53.628,24,false,0.445837,-0.302002,0.586975,0.604553,0.89601,-0.432868,-0.126833,-0.046086,0.001802,0.055469
1722051833.6596,2024-07-26 20:43:53.659,25,false,0.446,-0.302002,0.586914,0.604492,0.887221,-0.439704,-0.130251,-0.04608,0.00178,0.055379
1722051833.6909,2024-07-26 20:43:53.690,26,false,0.446,-0.302002,0.586914,0.604492,0.887221,-0.428473,-0.119509,-0.046025,0.00181,0.055432
1722051833.7221,2024-07-26 20:43:53.722,27,false,0.446,-0.302002,0.586914,0.604492,0.880385,-0.449958,-0.128786,-0.045976,0.001836,0.05548
1722051833.7534,2024-07-26 20:43:53.753,28,false,0.445959,-0.302063,0.586914,0.604492,0.887709,-0.43238,-0.122438,-0.045919,0.001848,0.055449
1722051833.7846,2024-07-26 20:43:53.784,29,false,0.446005,-0.302002,0.587036,0.60437,0.889174,-0.437263,-0.126833,-0.045978,0.001773,0.055459
1722051833.8159,2024-07-26 20:43:53.815,30,false,0.446211,-0.301941,0.587036,0.604248,0.889174,-0.437263,-0.126833,-0.046031,0.001706,0.055467
1722051833.8471,2024-07-26 20:43:53.847,31,false,0.446253,-0.302002,0.587036,0.604187,0.890639,-0.436286,-0.11902,-0.045969,0.001694,0.055438
1722051833.8784,2024-07-26 20:43:53.878,0,false,0.446131,-0.302063,0.587097,0.604187,0.884291,-0.428962,-0.127321,-0.045962,0.001732,0.055363
1722051833.9096,2024-07-26 20:43:53.909,1,false,0.445968,-0.302063,0.587158,0.604248,0.884291,-0.428962,-0.127321,-0.046066,0.001815,0.055405
1722051833.9409,2024-07-26 20:43:53.940,2,false,0.44572,-0.302063,0.587158,0.604431,0.882338,-0.431891,-0.123903,-0.046,0.001792,0.055322
1722051833.9721,2024-07-26 20:43:53.972,3,false,0.445805,-0.301941,0.587219,0.60437,0.884779,-0.440681,-0.126833,-0.045978,0.001808,0.055393
1722051834.0034,2024-07-26 20:43:54.003,4,false,0.445805,-0.301941,0.587219,0.60437,0.884779,-0.440681,-0.126833,-0.045995,0.001774,0.055505
1722051834.0346,2024-07-26 20:43:54.034,5,false,0.445849,-0.302002,0.58728,0.604248,0.883314,-0.451423,-0.116579,-0.045875,0.001792,0.055497
1722051834.0659,2024-07-26 20:43:54.065,6,false,0.446172,-0.302002,0.587097,0.604187,0.884291,-0.439216,-0.117556,-0.045829,0.00171,0.05555
1722051834.0971,2024-07-26 20:43:54.097,7,false,0.446214,-0.301941,0.587097,0.604187,0.885267,-0.438727,-0.121462,-0.045848,0.001759,0.055574
1722051834.1284,2024-07-26 20:43:54.128,8,false,0.446255,-0.302002,0.587097,0.604126,0.881361,-0.44361,-0.133181,-0.045878,0.001815,0.055607
1722051834.1596,2024-07-26 20:43:54.159,9,false,0.446214,-0.302063,0.587097,0.604126,0.872572,-0.425055,-0.130251,-0.045831,0.001975,0.055711
1722051834.1909,2024-07-26 20:43:54.190,10,false,0.44617,-0.302124,0.587036,0.604187,0.872572,-0.425055,-0.130251,-0.045789,0.00212,0.055804
1722051834.2221,2024-07-26 20:43:54.222,11,false,0.446087,-0.302124,0.587036,0.604248,0.886244,-0.440681,-0.13904,-0.045812,0.002188,0.055851
1722051834.2534,2024-07-26 20:43:54.253,12,false,0.446211,-0.302063,0.587036,0.604187,0.889662,-0.431891,-0.121462,-0.045882,0.002202,0.055857
1722051834.2846,2024-07-26 20:43:54.284,13,false,0.446292,-0.302063,0.586975,0.604187,0.889662,-0.431891,-0.121462,-0.045945,0.002213,0.055862
1722051834.3159,2024-07-26 20:43:54.315,14,false,0.44617,-0.302124,0.587036,0.604187,0.87599,-0.440192,-0.118532,-0.04594,0.002224,0.05572
1722051834.3471,2024-07-26 20:43:54.347,15,false,0.44617,-0.302124,0.587036,0.604187,0.883314,-0.438727,-0.128298,-0.045851,0.002221,0.055751
1722051834.3784,2024-07-26 20:43:54.378,16,false,0.44617,-0.302124,0.587036,0.604187,0.883314,-0.438727,-0.128298,-0.045794,0.002207,0.055706
1722051834.4096,2024-07-26 20:43:54.409,17,false,0.44625,-0.302124,0.586975,0.604187,0.885756,-0.431403,-0.113649,-0.045756,0.002181,0.055653
1722051834.4409,2024-07-26 20:43:54.440,18,false,0.446333,-0.302124,0.586975,0.604126,0.883803,-0.427497,-0.130251,-0.045844,0.002097,0.055667
1722051834.4721,2024-07-26 20:43:54.472,19,false,0.44617,-0.302124,0.587036,0.604187,0.87599,-0.440192,-0.118532,-0.045849,0.002095,0.055569
1722051834.5034,2024-07-26 20:43:54.503,20,false,0.446331,-0.302124,0.586914,0.604187,0.880873,-0.434821,-0.123415,-0.045854,0.002093,0.055481
1722051834.5346,2024-07-26 20:43:54.534,21,false,0.446374,-0.302185,0.586975,0.604065,0.894057,-0.445563,-0.130251,-0.045798,0.001969,0.055524
1722051834.5659,2024-07-26 20:43:54.565,22,false,0.446377,-0.302185,0.587036,0.604004,0.882338,-0.43238,-0.120974,-0.045869,0.001943,0.055623
1722051834.5971,2024-07-26 20:43:54.597,23,false,0.446377,-0.302307,0.587036,0.603943,0.882338,-0.43238,-0.120974,-0.045933,0.00192,0.055713
1722051834.6284,2024-07-26 20:43:54.628,24,false,0.446624,-0.302307,0.587036,0.60376,0.881849,-0.439216,-0.126833,-0.045844,0.001948,0.055598
1722051834.6596,2024-07-26 20:43:54.659,25,false,0.446748,-0.302368,0.587036,0.603638,0.887221,-0.427497,-0.129763,-0.045874,0.002082,0.055629
1722051834.6909,2024-07-26 20:43:54.690,26,false,0.446663,-0.30249,0.586975,0.603699,0.887221,-0.427497,-0.129763,-0.045889,0.002033,0.055645
1722051834.7221,2024-07-26 20:43:54.722,27,false,0.446663,-0.30249,0.586975,0.603699,0.886244,-0.434333,-0.125368,-0.045792,0.002123,0.055574
1722051834.7534,2024-07-26 20:43:54.753,28,false,0.446539,-0.302307,0.586975,0.603882,0.884779,-0.448005,-0.13611,-0.045791,0.00213,0.055619
1722051834.7846,2024-07-26 20:43:54.784,29,false,0.446493,-0.302246,0.586853,0.604065,0.884779,-0.448005,-0.13611,-0.045789,0.002137,0.055661
1722051834.8159,2024-07-26 20:43:54.815,30,false,0.446865,-0.302063,0.586853,0.603882,0.884779,-0.448005,-0.13611,-0.045788,0.002143,0.055698
1722051834.8471,2024-07-26 20:43:54.847,31,false,0.446904,-0.302002,0.586792,0.603943,0.885267,-0.437751,-0.122438,-0.045909,0.002087,0.05567
1722051834.8784,2024-07-26 20:43:54.878,0,false,0.447025,-0.301941,0.586731,0.603943,0.889174,-0.42359,-0.129274,-0.045969,0.002172,0.055547
1722051834.9096,2024-07-26 20:43:54.909,1,false,0.447105,-0.302063,0.58667,0.603882,0.889174,-0.42359,-0.129274,-0.045913,0.002052,0.055474
1722051834.9409,2024-07-26 20:43:54.940,2,false,0.447066,-0.302124,0.586731,0.603821,0.888197,-0.435798,-0.131228,-0.045814,0.001993,0.05542
1722051834.9721,2024-07-26 20:43:54.972,3,false,0.447188,-0.302185,0.58667,0.60376,0.89015,-0.437263,-0.125368,-0.045884,0.002026,0.055322
1722051835.0034,2024-07-26 20:43:55.003,4,false,0.447144,-0.302246,0.586609,0.603821,0.89015,-0.437263,-0.125368,-0.045946,0.002055,0.055234
1722051835.0346,2024-07-26 20:43:55.034,5,false,0.447224,-0.302368,0.586548,0.60376,0.886732,-0.434333,-0.118532,-0.045929,0.002069,0.055192
1722051835.0659,2024-07-26 20:43:55.065,6,false,0.447263,-0.302551,0.586487,0.603699,0.895033,-0.44361,-0.12781,-0.04589,0.002094,0.055288
1722051835.0971,2024-07-26 20:43:55.097,7,false,0.44718,-0.302795,0.586487,0.603638,0.895033,-0.44361,-0.12781,-0.045854,0.002117,0.055375
1722051835.1284,2024-07-26 20:43:55.128,8,false,0.447216,-0.302856,0.586365,0.603699,0.873549,-0.441657,-0.121462,-0.045859,0.002137,0.055428
1722051835.1596,2024-07-26 20:43:55.159,9,false,0.447133,-0.302979,0.586365,0.603699,0.894057,-0.434821,-0.131228,-0.045802,0.002131,0.055476
1722051835.1909,2024-07-26 20:43:55.190,10,false,0.447218,-0.302979,0.586426,0.603577,0.894057,-0.434821,-0.131228,-0.04575,0.002125,0.055519
1722051835.2221,2024-07-26 20:43:55.222,11,false,0.447216,-0.302856,0.586365,0.603699,0.884779,-0.433356,-0.131228,-0.045643,0.002059,0.055619
1722051835.2534,2024-07-26 20:43:55.253,12,false,0.447221,-0.302856,0.586487,0.603577,0.884779,-0.433356,-0.131228,-0.045547,0.002,0.055709
1722051835.2846,2024-07-26 20:43:55.284,13,false,0.447182,-0.302917,0.586548,0.603516,0.883314,-0.435309,-0.122927,-0.045533,0.002056,0.055656
1722051835.3159,2024-07-26 20:43:55.315,14,false,0.447181,-0.30304,0.586548,0.603455,0.879408,-0.439704,-0.119509,-0.045557,0.002131,0.055486
1722051835.3471,2024-07-26 20:43:55.347,15,false,0.447137,-0.303223,0.586487,0.603455,0.879408,-0.439704,-0.119509,-0.045579,0.002199,0.055333
1722051835.3784,2024-07-26 20:43:55.378,16,false,0.447258,-0.303284,0.586426,0.603394,0.879896,-0.421149,-0.130251,-0.045636,0.002028,0.055354
1722051835.4096,2024-07-26 20:43:55.409,17,false,0.447219,-0.303345,0.586487,0.603333,0.887221,-0.435798,-0.135134,-0.045674,0.001984,0.055361
1722051835.4409,2024-07-26 20:43:55.440,18,false,0.447221,-0.303467,0.586548,0.60321,0.887221,-0.435798,-0.135134,-0.045709,0.001944,0.055367
1722051835.4721,2024-07-26 20:43:55.472,19,false,0.447342,-0.303528,0.586487,0.603149,0.885267,-0.429938,-0.122927,-0.04574,0.002006,0.055372
1722051835.5034,2024-07-26 20:43:55.503,20,false,0.447301,-0.303589,0.586487,0.603149,0.892103,-0.435309,-0.126345,-0.045768,0.002001,0.055316
1722051835.5346,2024-07-26 20:43:55.534,21,false,0.447303,-0.303467,0.586548,0.603149,0.892103,-0.435309,-0.126345,-0.045794,0.001996,0.055265
1722051835.5659,2024-07-26 20:43:55.565,22,false,0.447303,-0.303467,0.586548,0.603149,0.878431,-0.414313,-0.12195,-0.045633,0.002077,0.055195
1722051835.5971,2024-07-26 20:43:55.597,23,false,0.447592,-0.303284,0.586548,0.603027,0.889662,-0.419196,-0.126345,-0.045672,0.002065,0.055194
1722051835.6284,2024-07-26 20:43:55.628,24,false,0.447713,-0.303223,0.586487,0.603027,0.886244,-0.442145,-0.124392,-0.045634,0.001968,0.055119
1722051835.6596,2024-07-26 20:43:55.659,25,false,0.447713,-0.303223,0.586487,0.603027,0.888685,-0.434821,-0.129763,-0.045648,0.002052,0.055234
1722051835.6909,2024-07-26 20:43:55.690,26,false,0.447588,-0.303284,0.586426,0.603149,0.89308,-0.427497,-0.128786,-0.045673,0.002018,0.055265
1722051835.7221,2024-07-26 20:43:55.722,27,false,0.447666,-0.303528,0.586365,0.603027,0.89308,-0.427497,-0.128786,-0.045696,0.001987,0.055293
1722051835.7534,2024-07-26 20:43:55.753,28,false,0.447704,-0.303711,0.586304,0.602966,0.887709,-0.431891,-0.120485,-0.045655,0.001959,0.055318
1722051835.7846,2024-07-26 20:43:55.784,29,false,0.447866,-0.303833,0.586243,0.602844,0.891615,-0.434333,-0.125368,-0.045643,0.002056,0.055462
1722051835.8159,2024-07-26 20:43:55.815,30,false,0.447744,-0.304016,0.586304,0.602783,0.891615,-0.434333,-0.125368,-0.045632,0.002144,0.055593
1722051835.8471,2024-07-26 20:43:55.847,31,false,0.447823,-0.304138,0.586243,0.602722,0.888685,-0.428962,-0.132204,-0.045646,0.002149,0.055575
1722051835.8784,2024-07-26 20:43:55.878,0,false,0.44766,-0.30426,0.586304,0.602722,0.89308,-0.42652,-0.124392,-0.045794,0.001983,0.055487
1722051835.9096,2024-07-26 20:43:55.909,1,false,0.447657,-0.304382,0.586243,0.602722,0.89308,-0.42652,-0.124392,-0.045853,0.002004,0.055419
1722051835.9409,2024-07-26 20:43:55.940,2,false,0.447613,-0.304443,0.586182,0.602783,0.881361,-0.430915,-0.119509,-0.045858,0.001914,0.055407
1722051835.9721,2024-07-26 20:43:55.972,3,false,0.447366,-0.304565,0.586182,0.602905,0.884779,-0.42652,-0.123903,-0.045935,0.002003,0.05553
1722051836.0034,2024-07-26 20:43:56.003,4,false,0.447657,-0.304382,0.586243,0.602722,0.888685,-0.428962,-0.132204,-0.045931,0.001949,0.055532
1722051836.0346,2024-07-26 20:43:56.034,5,false,0.447409,-0.304626,0.586243,0.602783,0.890639,-0.440681,-0.124392,-0.045928,0.001901,0.055533
1722051836.0659,2024-07-26 20:43:56.065,6,false,0.447409,-0.304626,0.586243,0.602783,0.880873,-0.434821,-0.132204,-0.045986,0.001882,0.055595
1722051836.0971,2024-07-26 20:43:56.097,7,false,0.447323,-0.304749,0.586182,0.602844,0.884291,-0.430426,-0.128786,-0.045819,0.00184,0.055687
1722051836.1284,2024-07-26 20:43:56.128,8,false,0.447364,-0.30481,0.586182,0.602783,0.884291,-0.430426,-0.128786,-0.045668,0.001802,0.055771
1722051836.1596,2024-07-26 20:43:56.159,9,false,0.447362,-0.30481,0.586121,0.602844,0.880385,-0.427497,-0.122927,-0.045716,0.00183,0.055723
1722051836.1909,2024-07-26 20:43:56.190,10,false,0.447402,-0.304871,0.586121,0.602783,0.891127,-0.431891,-0.112673,-0.045746,0.001928,0.05573
1722051836.2221,2024-07-26 20:43:56.222,11,false,0.447363,-0.304932,0.586182,0.602722,0.891127,-0.431891,-0.112673,-0.045774,0.002016,0.055735
1722051836.2534,2024-07-26 20:43:56.253,12,false,0.44728,-0.305054,0.586182,0.602722,0.892103,-0.425544,-0.130739,-0.045884,0.002083,0.055777
1722051836.2846,2024-07-26 20:43:56.284,13,false,0.447438,-0.305054,0.585999,0.602783,0.884779,-0.424079,-0.122438,-0.0458,0.002033,0.055717
1722051836.3159,2024-07-26 20:43:56.315,14,false,0.447353,-0.305054,0.585938,0.602905,0.884779,-0.424079,-0.122438,-0.045725,0.001988,0.055663
1722051836.3471,2024-07-26 20:43:56.347,15,false,0.447479,-0.304993,0.585999,0.602783,0.884779,-0.424079,-0.122438,-0.045657,0.001948,0.055614
1722051836.3784,2024-07-26 20:43:56.378,16,false,0.447558,-0.305115,0.585938,0.602722,0.887709,-0.438239,-0.126833,-0.045595,0.001912,0.055534
1722051836.4096,2024-07-26 20:43:56.409,17,false,0.44752,-0.305054,0.585999,0.602722,0.880873,-0.42945,-0.122438,-0.045736,0.001941,0.055462
1722051836.4409,2024-07-26 20:43:56.440,18,false,0.447481,-0.304993,0.58606,0.602722,0.880873,-0.42945,-0.122438,-0.045862,0.001966,0.055397
1722051836.4721,2024-07-26 20:43:56.472,19,false,0.447443,-0.304932,0.586121,0.602722,0.898451,-0.430426,-0.119509,-0.04589,0.002063,0.055448
1722051836.5034,2024-07-26 20:43:56.503,20,false,0.447487,-0.304871,0.586182,0.602661,0.889174,-0.42359,-0.119997,-0.046062,0.002113,0.055482
1722051836.5346,2024-07-26 20:43:56.534,21,false,0.44749,-0.304749,0.586243,0.602661,0.889174,-0.42359,-0.119997,-0.046216,0.002158,0.055512
1722051836.5659,2024-07-26 20:43:56.565,22,false,0.44741,-0.304749,0.586304,0.602661,0.885756,-0.42945,-0.122927,-0.046185,0.002113,0.055491
1722051836.5971,2024-07-26 20:43:56.597,23,false,0.447495,-0.304626,0.586365,0.6026,0.886244,-0.433845,-0.126345,-0.046144,0.002219,0.055569
1722051836.6284,2024-07-26 20:43:56.628,24,false,0.447371,-0.30481,0.586365,0.6026,0.886244,-0.433845,-0.126345,-0.046107,0.002315,0.05564
1722051836.6596,2024-07-26 20:43:56.659,25,false,0.447371,-0.30481,0.586365,0.6026,0.888685,-0.444099,-0.116091,-0.04605,0.002437,0.055667
1722051836.6909,2024-07-26 20:43:56.690,26,false,0.447289,-0.30481,0.586365,0.602661,0.884291,-0.436774,-0.119509,-0.045974,0.00234,0.055654
1722051836.7221,2024-07-26 20:43:56.722,27,false,0.447332,-0.304749,0.586426,0.6026,0.884291,-0.436774,-0.119509,-0.045905,0.002252,0.055643
1722051836.7534,2024-07-26 20:43:56.753,28,false,0.447371,-0.30481,0.586365,0.6026,0.891127,-0.446052,-0.124392,-0.045856,0.002283,0.055658
1722051836.7846,2024-07-26 20:43:56.784,29,false,0.447374,-0.304688,0.586426,0.6026,0.891127,-0.446052,-0.124392,-0.045811,0.002311,0.055671
1722051836.8159,2024-07-26 20:43:56.815,30,false,0.447412,-0.304749,0.586365,0.6026,0.885267,-0.42945,-0.131228,-0.045808,0.002178,0.055682
1722051836.8471,2024-07-26 20:43:56.847,31,false,0.44745,-0.304932,0.586304,0.602539,0.897963,-0.431403,-0.126345,-0.045768,0.00218,0.055656
1722051836.8784,2024-07-26 20:43:56.878,0,false,0.447652,-0.304993,0.586243,0.602417,0.897963,-0.431403,-0.126345,-0.045732,0.002182,0.055633
1722051836.9096,2024-07-26 20:43:56.909,1,false,0.447774,-0.304932,0.586182,0.602417,0.89601,-0.435798,-0.119997,-0.045798,0.002122,0.055758
1722051836.9409,2024-07-26 20:43:56.940,2,false,0.447812,-0.304993,0.586121,0.602417,0.897475,-0.414313,-0.127321,-0.045771,0.00202,0.055773
1722051836.9721,2024-07-26 20:43:56.972,3,false,0.447732,-0.304993,0.586182,0.602417,0.897475,-0.414313,-0.127321,-0.045638,0.002038,0.05586
1722051837.0034,2024-07-26 20:43:57.003,4,false,0.447771,-0.305054,0.586121,0.602417,0.895033,-0.427497,-0.132204,-0.045652,0.002115,0.055816
1722051837.0346,2024-07-26 20:43:57.034,5,false,0.447528,-0.304932,0.586182,0.6026,0.87892,-0.421637,-0.11902,-0.045664,0.002159,0.055862
1722051837.0659,2024-07-26 20:43:57.065,6,false,0.447165,-0.304871,0.586365,0.602722,0.87892,-0.421637,-0.11902,-0.045675,0.0022,0.055903
1722051837.0971,2024-07-26 20:43:57.097,7,false,0.446967,-0.304688,0.586548,0.602783,0.891615,-0.424567,-0.123415,-0.045698,0.002273,0.055843
1722051837.1284,2024-07-26 20:43:57.128,8,false,0.447008,-0.304749,0.586548,0.602722,0.898939,-0.42945,-0.12781,-0.045681,0.002216,0.055971
1722051837.1596,2024-07-26 20:43:57.159,9,false,0.446971,-0.304688,0.58667,0.602661,0.89308,-0.43238,-0.126833,-0.045667,0.002166,0.05599
1722051837.1909,2024-07-26 20:43:57.190,10,false,0.446888,-0.30481,0.58667,0.602661,0.893568,-0.426032,-0.116091,-0.04558,0.002206,0.055908
1722051837.2221,2024-07-26 20:43:57.222,11,false,0.446561,-0.305054,0.586792,0.602661,0.897475,-0.43238,-0.123903,-0.045563,0.00218,0.055896
1722051837.2534,2024-07-26 20:43:57.253,12,false,0.446521,-0.305237,0.586853,0.602539,0.897475,-0.43238,-0.123903,-0.045548,0.002158,0.055885
1722051837.2846,2024-07-26 20:43:57.284,13,false,0.44624,-0.305298,0.587097,0.602478,0.89308,-0.440192,-0.126833,-0.045485,0.002113,0.055851
1722051837.3159,2024-07-26 20:43:57.315,14,false,0.446042,-0.305115,0.58728,0.602539,0.888197,-0.432868,-0.125368,-0.045624,0.002048,0.055735
1722051837.3471,2024-07-26 20:43:57.347,15,false,0.445968,-0.304871,0.587463,0.602539,0.888197,-0.432868,-0.125368,-0.045652,0.002075,0.055874
1722051837.3784,2024-07-26 20:43:57.378,16,false,0.445888,-0.304871,0.587524,0.602539,0.892592,-0.433845,-0.123903,-0.045664,0.002087,0.055866
1722051837.4096,2024-07-26 20:43:57.409,17,false,0.445927,-0.30481,0.587463,0.6026,0.898451,-0.435798,-0.116579,-0.045639,0.002135,0.055821
1722051837.4409,2024-07-26 20:43:57.440,18,false,0.446011,-0.304688,0.587463,0.6026,0.898451,-0.435798,-0.116579,-0.045616,0.002178,0.055781
1722051837.4721,2024-07-26 20:43:57.472,19,false,0.44622,-0.304504,0.587524,0.602478,0.885267,-0.443122,-0.127321,-0.045559,0.002241,0.055782
1722051837.5034,2024-07-26 20:43:57.503,20,false,0.44639,-0.304382,0.587646,0.602295,0.888685,-0.435798,-0.116091,-0.045617,0.002188,0.055758
1722051837.5346,2024-07-26 20:43:57.534,21,false,0.446011,-0.304688,0.587463,0.6026,0.892592,-0.433845,-0.123903,-0.04556,0.002128,0.055785
1722051837.5659,2024-07-26 20:43:57.565,22,false,0.446312,-0.304504,0.58783,0.602112,0.879896,-0.44654,-0.119509,-0.045509,0.002073,0.05581
1722051837.5971,2024-07-26 20:43:57.597,23,false,0.446431,-0.304688,0.587708,0.602051,0.883803,-0.434821,-0.12195,-0.045535,0.002,0.055746
1722051837.6284,2024-07-26 20:43:57.628,24,false,0.446627,-0.304871,0.587463,0.602051,0.889174,-0.422614,-0.123903,-0.045572,0.001971,0.055726
1722051837.6596,2024-07-26 20:43:57.659,25,false,0.44658,-0.305054,0.587341,0.602112,0.889174,-0.422614,-0.123903,-0.045556,0.001933,0.055634
1722051837.6909,2024-07-26 20:43:57.690,26,false,0.44658,-0.305054,0.587341,0.602112,0.889662,-0.414801,-0.115602,-0.045614,0.001947,0.055564
1722051837.7221,2024-07-26 20:43:57.722,27,false,0.44683,-0.304932,0.587402,0.601929,0.887221,-0.431403,-0.122438,-0.045521,0.001923,0.055599
1722051837.7534,2024-07-26 20:43:57.753,28,false,0.447039,-0.304749,0.587463,0.601807,0.887221,-0.431403,-0.122438,-0.045437,0.001902,0.05563
1722051837.7846,2024-07-26 20:43:57.784,29,false,0.447121,-0.304504,0.587402,0.601929,0.894545,-0.434333,-0.115602,-0.045471,0.001748,0.055609
1722051837.8159,2024-07-26 20:43:57.815,30,false,0.447119,-0.304504,0.587341,0.60199,0.894057,-0.427985,-0.117556,-0.045452,0.001805,0.055578
1722051837.8471,2024-07-26 20:43:57.847,31,false,0.44712,-0.304382,0.587341,0.602051,0.894057,-0.427985,-0.117556,-0.045436,0.001857,0.05555
1722051837.8784,2024-07-26 20:43:57.878,0,false,0.447204,-0.304138,0.587341,0.602112,0.89308,-0.424079,-0.123415,-0.045421,0.001903,0.055439
1722051837.9096,2024-07-26 20:43:57.909,1,false,0.447322,-0.303955,0.587158,0.602295,0.885756,-0.42945,-0.116091,-0.045469,0.001823,0.055364
1722051837.9409,2024-07-26 20:43:57.940,2,false,0.447524,-0.303894,0.587036,0.602295,0.885267,-0.431403,-0.12195,-0.045585,0.00186,0.055431
1722051837.9721,2024-07-26 20:43:57.972,3,false,0.447483,-0.303833,0.587036,0.602356,0.890639,-0.429938,-0.120485,-0.045641,0.001943,0.055381
1722051838.0034,2024-07-26 20:43:58.003,4,false,0.447685,-0.303772,0.586914,0.602356,0.884779,-0.419684,-0.134646,-0.045679,0.001944,0.055324
1722051838.0346,2024-07-26 20:43:58.034,5,false,0.447731,-0.303589,0.587036,0.602295,0.884779,-0.419684,-0.134646,-0.04575,0.00203,0.055212
1722051838.0659,2024-07-26 20:43:58.065,6,false,0.44765,-0.303711,0.587097,0.602234,0.884779,-0.432868,-0.12781,-0.045838,0.002047,0.055147
1722051838.0971,2024-07-26 20:43:58.097,7,false,0.44757,-0.303833,0.587158,0.602173,0.891127,-0.435798,-0.132204,-0.045783,0.001989,0.055248
1722051838.1284,2024-07-26 20:43:58.128,8,false,0.447324,-0.304077,0.587219,0.602173,0.891127,-0.435798,-0.132204,-0.045734,0.001936,0.055338
1722051838.1596,2024-07-26 20:43:58.159,9,false,0.447158,-0.304321,0.587219,0.602173,0.888685,-0.436286,-0.124392,-0.045775,0.001852,0.055334
1722051838.1909,2024-07-26 20:43:58.190,10,false,0.447118,-0.304382,0.58728,0.602112,0.883314,-0.431891,-0.125368,-0.045738,0.001887,0.055319
1722051838.2221,2024-07-26 20:43:58.222,11,false,0.446958,-0.304382,0.587402,0.602112,0.883314,-0.431891,-0.125368,-0.045779,0.001906,0.05528
1722051838.2534,2024-07-26 20:43:58.253,12,false,0.446636,-0.304138,0.587585,0.602295,0.879896,-0.448493,-0.125368,-0.045754,0.001984,0.055282
1722051838.2846,2024-07-26 20:43:58.284,13,false,0.447118,-0.304382,0.58728,0.602112,0.879896,-0.448493,-0.125368,-0.045732,0.001956,0.055369
1722051838.3159,2024-07-26 20:43:58.315,14,false,0.446634,-0.304138,0.587524,0.602356,0.884291,-0.428473,-0.118532,-0.045749,0.001932,0.055362
1722051838.3471,2024-07-26 20:43:58.347,15,false,0.446715,-0.304138,0.587463,0.602356,0.880385,-0.437263,-0.116091,-0.045874,0.001934,0.055307
1722051838.3784,2024-07-26 20:43:58.378,16,false,0.446713,-0.304138,0.587402,0.602417,0.880385,-0.437263,-0.116091,-0.045986,0.001936,0.055257
1722051838.4096,2024-07-26 20:43:58.409,17,false,0.446875,-0.304138,0.587341,0.602356,0.890639,-0.422614,-0.126833,-0.045965,0.001937,0.055359
1722051838.4409,2024-07-26 20:43:58.440,18,false,0.446956,-0.304016,0.58728,0.602417,0.895033,-0.431403,-0.125856,-0.045861,0.002037,0.055377
1722051838.4721,2024-07-26 20:43:58.472,19,false,0.447038,-0.304016,0.58728,0.602356,0.895033,-0.431403,-0.125856,-0.045767,0.002126,0.055394
1722051838.5034,2024-07-26 20:43:58.503,20,false,0.447126,-0.303894,0.587402,0.602234,0.874037,-0.42945,-0.125368,-0.045658,0.002121,0.055348
1722051838.5346,2024-07-26 20:43:58.534,21,false,0.447123,-0.303894,0.587341,0.602295,0.889174,-0.42652,-0.122927,-0.045634,0.002104,0.055416
1722051838.5659,2024-07-26 20:43:58.565,22,false,0.447083,-0.303833,0.587341,0.602356,0.889174,-0.42652,-0.122927,-0.045611,0.002089,0.055478
1722051838.5971,2024-07-26 20:43:58.597,23,false,0.446999,-0.303711,0.58728,0.602539,0.883314,-0.447517,-0.114137,-0.045579,0.002088,0.05546
1722051838.6284,2024-07-26 20:43:58.628,24,false,0.447119,-0.30365,0.587158,0.6026,0.888197,-0.436286,-0.122438,-0.045623,0.002135,0.055431
1722051838.6596,2024-07-26 20:43:58.659,25,false,0.447605,-0.303406,0.586914,0.6026,0.888197,-0.436286,-0.122438,-0.045663,0.002178,0.055406
1722051838.6909,2024-07-26 20:43:58.690,26,false,0.447765,-0.303406,0.586792,0.6026,0.888197,-0.436286,-0.122438,-0.04565,0.002229,0.055273
1722051838.7221,2024-07-26 20:43:58.722,27,false,0.447683,-0.303406,0.586792,0.602661,0.880385,-0.42945,-0.134646,-0.045626,0.002287,0.055325
1722051838.7534,2024-07-26 20:43:58.753,28,false,0.447763,-0.303406,0.586731,0.602661,0.882826,-0.442634,-0.128298,-0.045605,0.002253,0.055273
1722051838.7846,2024-07-26 20:43:58.784,29,false,0.447799,-0.303467,0.586609,0.602722,0.882826,-0.442634,-0.128298,-0.045585,0.002223,0.055227
1722051838.8159,2024-07-26 20:43:58.815,30,false,0.447755,-0.303528,0.586548,0.602783,0.888685,-0.431891,-0.130739,-0.045458,0.002209,0.055234
1722051838.8471,2024-07-26 20:43:58.847,31,false,0.447631,-0.303711,0.586548,0.602783,0.885267,-0.42652,-0.132204,-0.045441,0.002134,0.05524
1722051838.8784,2024-07-26 20:43:58.878,0,false,0.447553,-0.303833,0.58667,0.602661,0.885267,-0.42652,-0.132204,-0.045426,0.002067,0.055246
1722051838.9096,2024-07-26 20:43:58.909,1,false,0.447431,-0.304016,0.586731,0.6026,0.884779,-0.436286,-0.133669,-0.045436,0.002007,0.055313
1722051838.9409,2024-07-26 20:43:58.940,2,false,0.447389,-0.304077,0.586731,0.6026,0.889662,-0.429938,-0.135134,-0.045483,0.002075,0.055311
1722051838.9721,2024-07-26 20:43:58.972,3,false,0.447346,-0.304016,0.58667,0.602722,0.889662,-0.429938,-0.135134,-0.045524,0.002136,0.05531
1722051839.0034,2024-07-26 20:43:59.003,4,false,0.447307,-0.304077,0.586731,0.602661,0.889174,-0.434333,-0.120485,-0.04555,0.002203,0.055138
1722051839.0346,2024-07-26 20:43:59.034,5,false,0.447145,-0.303955,0.586792,0.602783,0.883803,-0.424079,-0.124392,-0.045597,0.002239,0.055203
1722051839.0659,2024-07-26 20:43:59.065,6,false,0.447346,-0.304016,0.58667,0.602722,0.884779,-0.436286,-0.133669,-0.045566,0.002308,0.055237
1722051839.0971,2024-07-26 20:43:59.097,7,false,0.447228,-0.303833,0.586792,0.602783,0.87599,-0.437263,-0.12195,-0.045599,0.002346,0.055304
1722051839.1284,2024-07-26 20:43:59.128,8,false,0.447345,-0.303894,0.586609,0.602844,0.888197,-0.448005,-0.118532,-0.045678,0.002307,0.055462
1722051839.1596,2024-07-26 20:43:59.159,9,false,0.447466,-0.303833,0.586548,0.602844,0.892592,-0.431891,-0.127321,-0.045493,0.002296,0.055519
1722051839.1909,2024-07-26 20:43:59.190,10,false,0.447545,-0.303955,0.586487,0.602783,0.892592,-0.431891,-0.127321,-0.045521,0.002347,0.055485
1722051839.2221,2024-07-26 20:43:59.222,11,false,0.447586,-0.304016,0.586487,0.602722,0.884291,-0.427497,-0.129274,-0.045498,0.002381,0.05543
1722051839.2534,2024-07-26 20:43:59.253,12,false,0.447668,-0.304016,0.586487,0.602661,0.887221,-0.425544,-0.128298,-0.045538,0.002375,0.055331
1722051839.2846,2024-07-26 20:43:59.284,13,false,0.447668,-0.304138,0.586487,0.6026,0.887221,-0.425544,-0.128298,-0.045574,0.002369,0.055242
1722051839.3159,2024-07-26 20:43:59.315,14,false,0.447671,-0.304016,0.586548,0.6026,0.875502,-0.43238,-0.125368,-0.045497,0.002328,0.055199
1722051839.3471,2024-07-26 20:43:59.347,15,false,0.447586,-0.304016,0.586487,0.602722,0.886732,-0.434333,-0.120485,-0.045561,0.002388,0.055234
1722051839.3784,2024-07-26 20:43:59.378,16,false,0.447463,-0.304077,0.586487,0.602783,0.886732,-0.434333,-0.120485,-0.04562,0.002442,0.055264
1722051839.4096,2024-07-26 20:43:59.409,17,false,0.447548,-0.303955,0.586548,0.602722,0.888685,-0.423102,-0.131228,-0.045525,0.00243,0.055329
1722051839.4409,2024-07-26 20:43:59.440,18,false,0.448029,-0.303955,0.586243,0.602661,0.888197,-0.440192,-0.123903,-0.045624,0.002358,0.05535
1722051839.4721,2024-07-26 20:43:59.472,19,false,0.447986,-0.304016,0.586182,0.602722,0.900404,-0.431403,-0.131228,-0.045639,0.002281,0.055394
1722051839.5034,2024-07-26 20:43:59.503,20,false,0.448029,-0.303955,0.586243,0.602661,0.886244,-0.426032,-0.133669,-0.045604,0.002345,0.05547
1722051839.5346,2024-07-26 20:43:59.534,21,false,0.448069,-0.303894,0.586182,0.602722,0.882826,-0.42945,-0.12488,-0.045756,0.002257,0.055477
1722051839.5659,2024-07-26 20:43:59.565,22,false,0.448027,-0.303955,0.586182,0.602722,0.882826,-0.42945,-0.12488,-0.045819,0.00219,0.055508
1722051839.5971,2024-07-26 20:43:59.597,23,false,0.448112,-0.303955,0.586243,0.6026,0.882826,-0.428473,-0.129763,-0.045851,0.002081,0.055609
1722051839.6284,2024-07-26 20:43:59.628,24,false,0.447952,-0.303955,0.586365,0.6026,0.884779,-0.435309,-0.122927,-0.045905,0.002129,0.055505
1722051839.6596,2024-07-26 20:43:59.659,25,false,0.448072,-0.304016,0.586304,0.602539,0.884779,-0.435309,-0.122927,-0.045953,0.002173,0.055411
1722051839.6909,2024-07-26 20:43:59.690,26,false,0.447995,-0.304016,0.586426,0.602478,0.894057,-0.434821,-0.128298,-0.04596,0.002114,0.055412
1722051839.7221,2024-07-26 20:43:59.722,27,false,0.448033,-0.304077,0.586365,0.602478,0.887709,-0.426032,-0.128786,-0.045893,0.00211,0.055364
1722051839.7534,2024-07-26 20:43:59.753,28,false,0.44803,-0.304199,0.586304,0.602478,0.887709,-0.426032,-0.128786,-0.045845,0.002058,0.055431
1722051839.7846,2024-07-26 20:43:59.784,29,false,0.447948,-0.304199,0.586304,0.602539,0.894545,-0.431403,-0.126833,-0.045862,0.002048,0.055466
1722051839.8159,2024-07-26 20:43:59.815,30,false,0.447993,-0.303894,0.586365,0.6026,0.881361,-0.42652,-0.127321,-0.045756,0.002038,0.055498
1722051839.8471,2024-07-26 20:43:59.847,31,false,0.44803,-0.304199,0.586304,0.602478,0.894057,-0.434821,-0.128298,-0.045795,0.002005,0.055442
1722051839.8784,2024-07-26 20:43:59.878,0,false,0.447914,-0.303772,0.586426,0.602661,0.876478,-0.444587,-0.128298,-0.04583,0.001976,0.055391
1722051839.9096,2024-07-26 20:43:59.909,1,false,0.447955,-0.303711,0.586426,0.602661,0.887709,-0.428962,-0.116091,-0.045861,0.001924,0.055528
1722051839.9409,2024-07-26 20:43:59.940,2,false,0.448161,-0.30365,0.586426,0.602539,0.881361,-0.43238,-0.125856,-0.045804,0.00194,0.05553
1722051839.9721,2024-07-26 20:43:59.972,3,false,0.448199,-0.303711,0.586365,0.602539,0.881361,-0.43238,-0.125856,-0.045752,0.001953,0.055531
1722051840.0034,2024-07-26 20:44:00.003,4,false,0.448358,-0.303833,0.586243,0.602478,0.881849,-0.417243,-0.123903,-0.045718,0.001892,0.055496
1722051840.0346,2024-07-26 20:44:00.034,5,false,0.448402,-0.303772,0.586304,0.602417,0.887709,-0.423102,-0.119997,-0.0457,0.001971,0.055439
1722051840.0659,2024-07-26 20:44:00.065,6,false,0.448402,-0.303772,0.586304,0.602417,0.887709,-0.423102,-0.119997,-0.045622,0.002128,0.055364
1722051840.0971,2024-07-26 20:44:00.097,7,false,0.448397,-0.303894,0.586182,0.602478,0.886732,-0.434821,-0.130251,-0.045723,0.002135,0.055345
1722051840.1284,2024-07-26 20:44:00.128,8,false,0.448233,-0.303894,0.586182,0.6026,0.885756,-0.429938,-0.12781,-0.045814,0.002117,0.055353
1722051840.1596,2024-07-26 20:44:00.159,9,false,0.448151,-0.303894,0.586182,0.602661,0.885756,-0.429938,-0.12781,-0.045896,0.002101,0.05536
1722051840.1909,2024-07-26 20:44:00.190,10,false,0.448153,-0.303894,0.586243,0.6026,0.887709,-0.428962,-0.133181,-0.045884,0.00211,0.055244
1722051840.2221,2024-07-26 20:44:00.222,11,false,0.448273,-0.304077,0.586182,0.602478,0.889662,-0.427497,-0.128298,-0.045897,0.002095,0.055237
1722051840.2534,2024-07-26 20:44:00.253,12,false,0.448272,-0.304199,0.586182,0.602417,0.889662,-0.434333,-0.122438,-0.045861,0.002032,0.055268
1722051840.2846,2024-07-26 20:44:00.284,13,false,0.448153,-0.30426,0.586304,0.602356,0.87599,-0.432868,-0.126833,-0.045877,0.001987,0.055259
1722051840.3159,2024-07-26 20:44:00.315,14,false,0.448275,-0.304321,0.586304,0.602234,0.889174,-0.427008,-0.126833,-0.045891,0.001984,0.055311
1722051840.3471,2024-07-26 20:44:00.347,15,false,0.448153,-0.304504,0.586365,0.602173,0.889174,-0.427008,-0.126833,-0.045904,0.001981,0.055359
1722051840.3784,2024-07-26 20:44:00.378,16,false,0.448193,-0.304688,0.586365,0.602051,0.89015,-0.411383,-0.121462,-0.045867,0.00199,0.055475
1722051840.4096,2024-07-26 20:44:00.409,17,false,0.44815,-0.304871,0.586365,0.60199,0.888685,-0.435798,-0.128786,-0.045883,0.002011,0.055445
1722051840.4409,2024-07-26 20:44:00.440,18,false,0.448107,-0.304932,0.586304,0.602051,0.888685,-0.435798,-0.128786,-0.045897,0.002029,0.055418
1722051840.4721,2024-07-26 20:44:00.472,19,false,0.448067,-0.304993,0.586365,0.60199,0.893568,-0.422126,-0.123415,-0.045897,0.002034,0.055406
1722051840.5034,2024-07-26 20:44:00.503,20,false,0.447942,-0.305176,0.586365,0.60199,0.89015,-0.430426,-0.119509,-0.045885,0.002026,0.055493
1722051840.5346,2024-07-26 20:44:00.534,21,false,0.447942,-0.305176,0.586365,0.60199,0.89015,-0.430426,-0.119509,-0.045825,0.001933,0.055474
1722051840.5659,2024-07-26 20:44:00.565,22,false,0.447982,-0.305115,0.586304,0.602051,0.89015,-0.434333,-0.12195,-0.045845,0.002057,0.055444
1722051840.5971,2024-07-26 20:44:00.597,23,false,0.447942,-0.305176,0.586365,0.60199,0.89015,-0.434333,-0.12195,-0.045862,0.002169,0.055417
1722051840.6284,2024-07-26 20:44:00.628,24,false,0.447898,-0.305115,0.586243,0.602173,0.894057,-0.433845,-0.12488,-0.045829,0.002062,0.055369
1722051840.6596,2024-07-26 20:44:00.659,25,false,0.448022,-0.304932,0.586243,0.602173,0.880873,-0.425055,-0.134646,-0.045714,0.002124,0.055386
1722051840.6909,2024-07-26 20:44:00.690,26,false,0.448103,-0.305054,0.586243,0.602051,0.880873,-0.425055,-0.134646,-0.045733,0.002058,0.055341
1722051840.7221,2024-07-26 20:44:00.722,27,false,0.448018,-0.305176,0.586182,0.602112,0.882338,-0.438727,-0.12781,-0.045847,0.001999,0.055361
1722051840.7534,2024-07-26 20:44:00.753,28,false,0.44822,-0.305237,0.586121,0.60199,0.89015,-0.436286,-0.123415,-0.045816,0.00197,0.055355
1722051840.7846,2024-07-26 20:44:00.784,29,false,0.448217,-0.305359,0.58606,0.60199,0.89015,-0.436286,-0.123415,-0.045787,0.001944,0.055349
1722051840.8159,2024-07-26 20:44:00.815,30,false,0.448175,-0.30542,0.58606,0.60199,0.89308,-0.429938,-0.131716,-0.045628,0.001969,0.055417
1722051840.8471,2024-07-26 20:44:00.847,31,false,0.448175,-0.30542,0.58606,0.60199,0.888685,-0.432868,-0.11902,-0.045569,0.002029,0.055393
1722051840.8784,2024-07-26 20:44:00.878,0,false,0.448221,-0.305359,0.586182,0.601868,0.888685,-0.432868,-0.11902,-0.045517,0.002082,0.055372
1722051840.9096,2024-07-26 20:44:00.909,1,false,0.447982,-0.305115,0.586304,0.602051,0.882338,-0.42359,-0.132204,-0.045543,0.002069,0.055377
1722051840.9409,2024-07-26 20:44:00.940,2,false,0.447856,-0.305176,0.586243,0.602173,0.887709,-0.436774,-0.125856,-0.04553,0.00196,0.055442
1722051840.9721,2024-07-26 20:44:00.972,3,false,0.447703,-0.305176,0.586548,0.60199,0.887709,-0.436774,-0.125856,-0.045445,0.002118,0.055452
1722051841.0034,2024-07-26 20:44:01.003,4,false,0.447742,-0.305115,0.586487,0.602051,0.887709,-0.436774,-0.125856,-0.045368,0.00226,0.055461
1722051841.0346,2024-07-26 20:44:01.034,5,false,0.447865,-0.305176,0.586487,0.601929,0.881361,-0.424079,-0.130251,-0.045323,0.002303,0.055567
1722051841.0659,2024-07-26 20:44:01.065,6,false,0.447902,-0.305359,0.586426,0.601868,0.884779,-0.430915,-0.123903,-0.04543,0.002292,0.055467
1722051841.0971,2024-07-26 20:44:01.097,7,false,0.448022,-0.30542,0.586365,0.601807,0.884779,-0.430915,-0.123903,-0.045526,0.002283,0.055377
1722051841.1284,2024-07-26 20:44:01.128,8,false,0.448062,-0.305481,0.586365,0.601746,0.888685,-0.433356,-0.130739,-0.045526,0.002286,0.055516
1722051841.1596,2024-07-26 20:44:01.159,9,false,0.448023,-0.305542,0.586426,0.601685,0.884779,-0.436774,-0.116091,-0.045527,0.002265,0.055518
1722051841.1909,2024-07-26 20:44:01.190,10,false,0.448181,-0.305664,0.586304,0.601624,0.884779,-0.436774,-0.116091,-0.045528,0.002332,0.055521
1722051841.2221,2024-07-26 20:44:01.222,11,false,0.448263,-0.305664,0.586304,0.601563,0.892592,-0.425544,-0.126345,-0.045516,0.002257,0.055425
1722051841.2534,2024-07-26 20:44:01.253,12,false,0.448345,-0.305664,0.586304,0.601501,0.882826,-0.424567,-0.115602,-0.045457,0.002202,0.055413
1722051841.2846,2024-07-26 20:44:01.284,13,false,0.448346,-0.305786,0.586365,0.601379,0.882826,-0.424567,-0.115602,-0.045403,0.002153,0.055401
1722051841.3159,2024-07-26 20:44:01.315,14,false,0.448384,-0.305847,0.586304,0.601379,0.895033,-0.422614,-0.131716,-0.045367,0.00228,0.055525
1722051841.3471,2024-07-26 20:44:01.347,15,false,0.448299,-0.305969,0.586243,0.60144,0.903822,-0.426032,-0.125368,-0.045408,0.00221,0.055454
1722051841.3784,2024-07-26 20:44:01.378,16,false,0.448346,-0.305786,0.586365,0.601379,0.892592,-0.425544,-0.126345,-0.045445,0.002246,0.055536
1722051841.4096,2024-07-26 20:44:01.409,17,false,0.4483,-0.305847,0.586243,0.601501,0.885756,-0.420661,-0.12488,-0.045478,0.002277,0.05561
1722051841.4409,2024-07-26 20:44:01.440,18,false,0.448302,-0.305725,0.586243,0.601563,0.891615,-0.407477,-0.125368,-0.045459,0.002221,0.055664
1722051841.4721,2024-07-26 20:44:01.472,19,false,0.448304,-0.305725,0.586304,0.601501,0.891127,-0.43238,-0.125368,-0.045564,0.002145,0.05575
1722051841.5034,2024-07-26 20:44:01.503,20,false,0.448263,-0.305908,0.586365,0.601379,0.891127,-0.43238,-0.125368,-0.045647,0.002089,0.05557
1722051841.5346,2024-07-26 20:44:01.534,21,false,0.448178,-0.306152,0.586365,0.601318,0.886732,-0.421637,-0.123903,-0.045611,0.00221,0.055568
1722051841.5659,2024-07-26 20:44:01.565,22,false,0.448378,-0.306335,0.586304,0.601135,0.886244,-0.419684,-0.130251,-0.045652,0.002209,0.05559
1722051841.5971,2024-07-26 20:44:01.597,23,false,0.4483,-0.306335,0.586426,0.601074,0.886244,-0.419684,-0.130251,-0.045689,0.002207,0.055609
1722051841.6284,2024-07-26 20:44:01.628,24,false,0.4483,-0.306335,0.586426,0.601074,0.899428,-0.431403,-0.12781,-0.045722,0.002329,0.055529
1722051841.6596,2024-07-26 20:44:01.659,25,false,0.448259,-0.306396,0.586426,0.601074,0.882338,-0.446052,-0.119509,-0.045593,0.00223,0.055555
1722051841.6909,2024-07-26 20:44:01.690,26,false,0.448177,-0.306396,0.586426,0.601135,0.882338,-0.446052,-0.119509,-0.045477,0.002141,0.055578
1722051841.7221,2024-07-26 20:44:01.722,27,false,0.44805,-0.30658,0.586365,0.601196,0.885267,-0.424079,-0.12195,-0.045459,0.002159,0.055575
1722051841.7534,2024-07-26 20:44:01.753,28,false,0.448331,-0.306519,0.586182,0.601196,0.894545,-0.433356,-0.12195,-0.045564,0.002273,0.055572
1722051841.7846,2024-07-26 20:44:01.784,29,false,0.44841,-0.306396,0.58606,0.601318,0.881361,-0.437751,-0.129274,-0.045597,0.002277,0.05563
1722051841.8159,2024-07-26 20:44:01.815,30,false,0.448411,-0.306152,0.585999,0.601501,0.877455,-0.419684,-0.118532,-0.04553,0.002257,0.055621
1722051841.8471,2024-07-26 20:44:01.847,31,false,0.448211,-0.306091,0.586121,0.601563,0.885267,-0.411383,-0.120974,-0.045567,0.0023,0.055613
1722051841.8784,2024-07-26 20:44:01.878,0,false,0.448211,-0.306091,0.586121,0.601563,0.885267,-0.411383,-0.120974,-0.045612,0.002204,0.055533
1722051841.9096,2024-07-26 20:44:01.909,1,false,0.448253,-0.30603,0.586121,0.601563,0.892592,-0.439704,-0.112184,-0.0458,0.002155,0.055571
1722051841.9409,2024-07-26 20:44:01.940,2,false,0.448292,-0.305969,0.58606,0.601624,0.881361,-0.420172,-0.120974,-0.0457,0.002135,0.055641
1722051841.9721,2024-07-26 20:44:01.972,3,false,0.44841,-0.305908,0.585876,0.601746,0.881361,-0.420172,-0.120974,-0.04561,0.002116,0.055704
1722051842.0034,2024-07-26 20:44:02.003,4,false,0.448571,-0.305908,0.585815,0.601685,0.895521,-0.420661,-0.122438,-0.045651,0.002064,0.055652
1722051842.0346,2024-07-26 20:44:02.034,5,false,0.448617,-0.305847,0.585938,0.601563,0.892103,-0.428473,-0.125368,-0.04559,0.002175,0.055604
1722051842.0659,2024-07-26 20:44:02.065,6,false,0.448496,-0.305908,0.585999,0.601563,0.892103,-0.428473,-0.125368,-0.045536,0.002274,0.055561
1722051842.0971,2024-07-26 20:44:02.097,7,false,0.448496,-0.305908,0.585999,0.601563,0.895521,-0.428473,-0.112673,-0.045572,0.002132,0.055474
1722051842.1284,2024-07-26 20:44:02.128,8,false,0.448617,-0.305847,0.585938,0.601563,0.895521,-0.428473,-0.112673,-0.045605,0.002005,0.055396
1722051842.1596,2024-07-26 20:44:02.159,9,false,0.448496,-0.305908,0.585999,0.601563,0.889662,-0.438727,-0.118532,-0.045598,0.002097,0.055325
1722051842.1909,2024-07-26 20:44:02.190,10,false,0.448338,-0.305786,0.586121,0.601624,0.885267,-0.434821,-0.130739,-0.045518,0.002107,0.055334
1722051842.2221,2024-07-26 20:44:02.222,11,false,0.448342,-0.305786,0.586243,0.601501,0.885267,-0.434821,-0.130739,-0.045568,0.002031,0.055221
1722051842.2534,2024-07-26 20:44:02.253,12,false,0.448224,-0.305725,0.586365,0.601501,0.896498,-0.431403,-0.136599,-0.045565,0.002096,0.05529
1722051842.2846,2024-07-26 20:44:02.284,13,false,0.448424,-0.305786,0.586243,0.60144,0.892103,-0.425544,-0.106325,-0.045488,0.002082,0.055303
1722051842.3159,2024-07-26 20:44:02.315,14,false,0.448335,-0.30603,0.586121,0.601501,0.892103,-0.425544,-0.106325,-0.045529,0.001984,0.055425
1722051842.3471,2024-07-26 20:44:02.347,15,false,0.448335,-0.306152,0.586182,0.601379,0.879408,-0.436774,-0.126345,-0.045627,0.001993,0.055375
1722051842.3784,2024-07-26 20:44:02.378,16,false,0.44834,-0.306152,0.586304,0.601257,0.897963,-0.414313,-0.129763,-0.045593,0.002062,0.055392
1722051842.4096,2024-07-26 20:44:02.409,17,false,0.448625,-0.306091,0.586243,0.601135,0.897963,-0.414313,-0.129763,-0.045636,0.002112,0.055456
1722051842.4409,2024-07-26 20:44:02.440,18,false,0.44859,-0.30603,0.586426,0.601013,0.890639,-0.42359,-0.123415,-0.045602,0.002109,0.055465
1722051842.4721,2024-07-26 20:44:02.472,19,false,0.448385,-0.306091,0.586426,0.601135,0.889662,-0.42945,-0.119509,-0.045656,0.002166,0.055534
1722051842.5034,2024-07-26 20:44:02.503,20,false,0.447906,-0.305725,0.58667,0.60144,0.889662,-0.42945,-0.119509,-0.045704,0.002218,0.055595
1722051842.5346,2024-07-26 20:44:02.534,21,false,0.447868,-0.305664,0.586731,0.60144,0.889662,-0.42945,-0.119509,-0.045748,0.002265,0.055651
1722051842.5659,2024-07-26 20:44:02.565,22,false,0.448077,-0.305481,0.586792,0.601318,0.883314,-0.431403,-0.130251,-0.045824,0.002209,0.05564
1722051842.5971,2024-07-26 20:44:02.597,23,false,0.448077,-0.305481,0.586792,0.601318,0.886244,-0.433845,-0.126833,-0.045881,0.002269,0.055533
1722051842.6284,2024-07-26 20:44:02.628,24,false,0.447996,-0.305359,0.586792,0.60144,0.886244,-0.433845,-0.126833,-0.045907,0.002311,0.05551
1722051842.6596,2024-07-26 20:44:02.659,25,false,0.448038,-0.305298,0.586792,0.60144,0.890639,-0.433356,-0.123415,-0.045894,0.002336,0.055476
1722051842.6909,2024-07-26 20:44:02.690,26,false,0.448116,-0.305298,0.58667,0.601501,0.877455,-0.442634,-0.12781,-0.045882,0.002237,0.05541
1722051842.7221,2024-07-26 20:44:02.722,27,false,0.448118,-0.305298,0.586731,0.60144,0.877455,-0.442634,-0.12781,-0.045884,0.002123,0.055423
1722051842.7534,2024-07-26 20:44:02.753,28,false,0.448277,-0.305176,0.586548,0.601563,0.890639,-0.429938,-0.13904,-0.045898,0.00213,0.055398
1722051842.7846,2024-07-26 20:44:02.784,29,false,0.448197,-0.305176,0.586609,0.601563,0.893568,-0.431403,-0.128298,-0.045886,0.002113,0.05534
1722051842.8159,2024-07-26 20:44:02.815,30,false,0.448033,-0.305176,0.586609,0.601685,0.893568,-0.431403,-0.128298,-0.045948,0.001987,0.055213
1722051842.8471,2024-07-26 20:44:02.847,31,false,0.448034,-0.305298,0.58667,0.601563,0.886244,-0.423102,-0.121462,-0.045968,0.001996,0.055185
1722051842.8784,2024-07-26 20:44:02.878,0,false,0.44791,-0.305359,0.58667,0.601624,0.898939,-0.431403,-0.130251,-0.045924,0.002065,0.055197
1722051842.9096,2024-07-26 20:44:02.909,1,false,0.448033,-0.305176,0.586609,0.601685,0.890639,-0.429938,-0.13904,-0.045873,0.002176,0.05528
1722051842.9409,2024-07-26 20:44:02.940,2,false,0.447789,-0.30542,0.586731,0.601624,0.879896,-0.436286,-0.11902,-0.045827,0.002275,0.055355
1722051842.9721,2024-07-26 20:44:02.972,3,false,0.447666,-0.305359,0.586731,0.601746,0.884779,-0.419196,-0.134157,-0.045822,0.002243,0.055423
1722051843.0034,2024-07-26 20:44:03.003,4,false,0.447629,-0.305176,0.586792,0.601807,0.891127,-0.438727,-0.131228,-0.04572,0.002361,0.055301
1722051843.0346,2024-07-26 20:44:03.034,5,false,0.447591,-0.305115,0.586853,0.601807,0.891127,-0.438727,-0.131228,-0.045689,0.002344,0.055288
1722051843.0659,2024-07-26 20:44:03.065,6,false,0.447628,-0.305054,0.586731,0.601929,0.883314,-0.442145,-0.133181,-0.045612,0.002281,0.05535
1722051843.0971,2024-07-26 20:44:03.097,7,false,0.447548,-0.305054,0.586792,0.601929,0.879408,-0.429938,-0.124392,-0.045665,0.002321,0.055528
1722051843.1284,2024-07-26 20:44:03.128,8,false,0.44763,-0.305054,0.586792,0.601868,0.879408,-0.429938,-0.124392,-0.045713,0.002358,0.055688
1722051843.1596,2024-07-26 20:44:03.159,9,false,0.44779,-0.305054,0.58667,0.601868,0.885756,-0.436286,-0.122438,-0.045744,0.002403,0.055601
1722051843.1909,2024-07-26 20:44:03.190,10,false,0.448037,-0.304932,0.58667,0.601746,0.891127,-0.43238,-0.133181,-0.045723,0.002333,0.055595
1722051843.2221,2024-07-26 20:44:03.222,11,false,0.448038,-0.305054,0.586731,0.601624,0.891127,-0.43238,-0.133181,-0.045704,0.002271,0.05559
1722051843.2534,2024-07-26 20:44:03.253,12,false,0.448117,-0.304932,0.586609,0.601746,0.879896,-0.434333,-0.131228,-0.045748,0.002312,0.055622
1722051843.2846,2024-07-26 20:44:03.284,13,false,0.447918,-0.304749,0.586731,0.601868,0.888197,-0.427497,-0.122438,-0.045775,0.002215,0.055662
1722051843.3159,2024-07-26 20:44:03.315,14,false,0.447837,-0.304626,0.586731,0.60199,0.889662,-0.428962,-0.128786,-0.045751,0.00214,0.055712
1722051843.3471,2024-07-26 20:44:03.347,15,false,0.44788,-0.304565,0.586792,0.601929,0.898451,-0.433845,-0.129274,-0.045778,0.002183,0.055744
1722051843.3784,2024-07-26 20:44:03.378,16,false,0.447888,-0.304443,0.586975,0.601807,0.884291,-0.435798,-0.12195,-0.045753,0.002257,0.055662
1722051843.4096,2024-07-26 20:44:03.409,17,false,0.447967,-0.304443,0.586914,0.601807,0.884291,-0.435798,-0.12195,-0.045731,0.002325,0.055589
1722051843.4409,2024-07-26 20:44:03.440,18,false,0.447967,-0.304443,0.586914,0.601807,0.892103,-0.421149,-0.123415,-0.045748,0.002239,0.055621
1722051843.4721,2024-07-26 20:44:03.472,19,false,0.447846,-0.304504,0.586975,0.601807,0.887709,-0.427008,-0.128298,-0.045714,0.002271,0.055723
1722051843.5034,2024-07-26 20:44:03.503,20,false,0.447886,-0.304443,0.586914,0.601868,0.887709,-0.427008,-0.128298,-0.045757,0.002154,0.055644
1722051843.5346,2024-07-26 20:44:03.534,21,false,0.447722,-0.304565,0.586975,0.601868,0.887709,-0.429938,-0.123415,-0.045869,0.002109,0.055634
1722051843.5659,2024-07-26 20:44:03.565,22,false,0.447723,-0.304443,0.586975,0.601929,0.883803,-0.432868,-0.130251,-0.045884,0.002094,0.055698
1722051843.5971,2024-07-26 20:44:03.597,23,false,0.447639,-0.304443,0.586914,0.602051,0.883803,-0.432868,-0.130251,-0.045898,0.00208,0.055756
1722051843.6284,2024-07-26 20:44:03.628,24,false,0.447642,-0.304321,0.586975,0.602051,0.894545,-0.428473,-0.127321,-0.045862,0.001982,0.055735
1722051843.6596,2024-07-26 20:44:03.659,25,false,0.447723,-0.304443,0.586975,0.601929,0.894545,-0.428473,-0.127321,-0.045829,0.001893,0.055715
1722051843.6909,2024-07-26 20:44:03.690,26,false,0.447524,-0.30426,0.587097,0.602051,0.886732,-0.419684,-0.12781,-0.045982,0.001802,0.055686
1722051843.7221,2024-07-26 20:44:03.722,27,false,0.447484,-0.304321,0.587158,0.60199,0.890639,-0.433356,-0.115602,-0.045962,0.001817,0.055659
1722051843.7534,2024-07-26 20:44:03.753,28,false,0.447444,-0.30426,0.587158,0.602051,0.890639,-0.433356,-0.115602,-0.045955,0.001904,0.055684
1722051843.7846,2024-07-26 20:44:03.784,29,false,0.447323,-0.304199,0.587219,0.602112,0.882338,-0.428473,-0.118532,-0.045962,0.001811,0.055695
1722051843.8159,2024-07-26 20:44:03.815,30,false,0.447165,-0.304199,0.587402,0.602051,0.891615,-0.417731,-0.122927,-0.045907,0.001911,0.055667
1722051843.8471,2024-07-26 20:44:03.847,31,false,0.447085,-0.304077,0.587463,0.602112,0.891615,-0.417731,-0.122927,-0.045857,0.002,0.055643
1722051843.8784,2024-07-26 20:44:03.878,0,false,0.447041,-0.30426,0.587402,0.602112,0.881361,-0.443122,-0.116579,-0.045874,0.00202,0.055657
1722051843.9096,2024-07-26 20:44:03.909,1,false,0.447163,-0.304199,0.587341,0.602112,0.887709,-0.44654,-0.126345,-0.045974,0.001903,0.055499
1722051843.9409,2024-07-26 20:44:03.940,2,false,0.447165,-0.304199,0.587402,0.602051,0.887709,-0.44654,-0.126345,-0.046064,0.001799,0.055357
1722051843.9721,2024-07-26 20:44:03.972,3,false,0.447289,-0.30426,0.587463,0.601868,0.891615,-0.433845,-0.125856,-0.046072,0.001729,0.055315
1722051844.0034,2024-07-26 20:44:04.003,4,false,0.447291,-0.30426,0.587524,0.601807,0.888197,-0.42652,-0.123903,-0.045957,0.001666,0.055313
1722051844.0346,2024-07-26 20:44:04.034,5,false,0.447252,-0.304321,0.587585,0.601746,0.888197,-0.42652,-0.123903,-0.045854,0.001609,0.055312
1722051844.0659,2024-07-26 20:44:04.065,6,false,0.447007,-0.304321,0.587646,0.601868,0.888197,-0.42652,-0.123903,-0.04576,0.001558,0.05531
1722051844.0971,2024-07-26 20:44:04.097,7,false,0.446888,-0.30426,0.587769,0.601868,0.886244,-0.43238,-0.128786,-0.045726,0.0015,0.055358
1722051844.1284,2024-07-26 20:44:04.128,8,false,0.447055,-0.30426,0.58783,0.601685,0.887221,-0.430426,-0.114137,-0.045743,0.001496,0.055315
1722051844.1596,2024-07-26 20:44:04.159,9,false,0.447138,-0.304138,0.58783,0.601685,0.887221,-0.430426,-0.114137,-0.045649,0.001505,0.055265
1722051844.1909,2024-07-26 20:44:04.190,10,false,0.447215,-0.30426,0.587708,0.601685,0.892103,-0.421637,-0.121462,-0.045552,0.001587,0.055354
1722051844.2221,2024-07-26 20:44:04.222,11,false,0.447295,-0.30426,0.587646,0.601685,0.879896,-0.434333,-0.123903,-0.045684,0.001636,0.055434
1722051844.2534,2024-07-26 20:44:04.253,12,false,0.447377,-0.30426,0.587646,0.601624,0.879896,-0.434333,-0.123903,-0.045803,0.00168,0.055506
1722051844.2846,2024-07-26 20:44:04.284,13,false,0.447379,-0.30426,0.587708,0.601563,0.89015,-0.43238,-0.122438,-0.045874,0.00178,0.05557
1722051844.3159,2024-07-26 20:44:04.315,14,false,0.447546,-0.304138,0.587769,0.60144,0.887221,-0.436286,-0.12195,-0.045876,0.001773,0.055543
1722051844.3471,2024-07-26 20:44:04.347,15,false,0.44738,-0.304138,0.587708,0.601624,0.887221,-0.436286,-0.12195,-0.045879,0.001828,0.055519
1722051844.3784,2024-07-26 20:44:04.378,16,false,0.447259,-0.304077,0.587769,0.601685,0.882826,-0.430915,-0.128786,-0.045868,0.001865,0.055448
1722051844.4096,2024-07-26 20:44:04.409,17,false,0.447221,-0.303894,0.58783,0.601746,0.883803,-0.42945,-0.124392,-0.045835,0.001788,0.055457
1722051844.4409,2024-07-26 20:44:04.440,18,false,0.44738,-0.304138,0.587708,0.601624,0.89015,-0.43238,-0.122438,-0.045793,0.001805,0.05549
1722051844.4721,2024-07-26 20:44:04.472,19,false,0.447182,-0.303955,0.587891,0.601685,0.89015,-0.420172,-0.131228,-0.045754,0.001819,0.05552
1722051844.5034,2024-07-26 20:44:04.503,20,false,0.447223,-0.303894,0.587891,0.601685,0.873549,-0.439704,-0.122438,-0.045793,0.001869,0.055437
1722051844.5346,2024-07-26 20:44:04.534,21,false,0.447224,-0.303772,0.587891,0.601746,0.883803,-0.440192,-0.123415,-0.045804,0.002036,0.055509
1722051844.5659,2024-07-26 20:44:04.565,22,false,0.447263,-0.303833,0.58783,0.601746,0.883803,-0.440192,-0.123415,-0.045813,0.002187,0.055573
1722051844.5971,2024-07-26 20:44:04.597,23,false,0.447226,-0.303772,0.587952,0.601685,0.888685,-0.423102,-0.125856,-0.045846,0.002237,0.055546
1722051844.6284,2024-07-26 20:44:04.628,24,false,0.447348,-0.303955,0.587952,0.601501,0.886244,-0.441657,-0.125856,-0.045791,0.002245,0.05546
1722051844.6596,2024-07-26 20:44:04.659,25,false,0.447631,-0.304016,0.58783,0.601379,0.886244,-0.441657,-0.125856,-0.045789,0.002277,0.055493
1722051844.6909,2024-07-26 20:44:04.690,26,false,0.447912,-0.304321,0.587708,0.601135,0.892592,-0.433356,-0.122438,-0.0458,0.002196,0.055534
1722051844.7221,2024-07-26 20:44:04.722,27,false,0.448037,-0.30426,0.587769,0.601013,0.886244,-0.423102,-0.122438,-0.045822,0.00211,0.055462
1722051844.7534,2024-07-26 20:44:04.753,28,false,0.448236,-0.304443,0.587646,0.600891,0.886244,-0.423102,-0.122438,-0.045842,0.002034,0.055397
1722051844.7846,2024-07-26 20:44:04.784,29,false,0.448315,-0.304565,0.587585,0.60083,0.895521,-0.434333,-0.117556,-0.045811,0.002001,0.055448
1722051844.8159,2024-07-26 20:44:04.815,30,false,0.44794,-0.304871,0.587463,0.601074,0.894057,-0.419684,-0.122438,-0.04582,0.001972,0.055433
1722051844.8471,2024-07-26 20:44:04.847,31,false,0.447857,-0.304993,0.587463,0.601074,0.881849,-0.425055,-0.120485,-0.045791,0.001982,0.05542
1722051844.8784,2024-07-26 20:44:04.878,0,false,0.447819,-0.304932,0.587524,0.601074,0.889662,-0.43238,-0.119997,-0.045802,0.001955,0.055371
1722051844.9096,2024-07-26 20:44:04.909,1,false,0.447779,-0.304993,0.587585,0.601013,0.89601,-0.424567,-0.128786,-0.045763,0.001894,0.055351
1722051844.9409,2024-07-26 20:44:04.940,2,false,0.447945,-0.304993,0.587646,0.60083,0.89601,-0.424567,-0.128786,-0.045728,0.001839,0.055334
1722051844.9721,2024-07-26 20:44:04.972,3,false,0.447906,-0.304932,0.587708,0.60083,0.880873,-0.436286,-0.125368,-0.045733,0.001911,0.055318
1722051845.0034,2024-07-26 20:44:05.003,4,false,0.448026,-0.304993,0.587646,0.600769,0.881361,-0.42652,-0.111696,-0.045774,0.001769,0.055255
1722051845.0346,2024-07-26 20:44:05.034,5,false,0.447942,-0.305237,0.587646,0.600708,0.881361,-0.42652,-0.111696,-0.04575,0.001824,0.055345
1722051845.0659,2024-07-26 20:44:05.065,6,false,0.448184,-0.305359,0.587585,0.600525,0.885267,-0.430426,-0.115114,-0.045752,0.001898,0.055414
1722051845.0971,2024-07-26 20:44:05.097,7,false,0.448178,-0.305725,0.587524,0.600403,0.885756,-0.435309,-0.123903,-0.045816,0.001903,0.055475
1722051845.1284,2024-07-26 20:44:05.128,8,false,0.448338,-0.305847,0.587463,0.600281,0.885756,-0.435309,-0.123903,-0.045873,0.001908,0.055531
1722051845.1596,2024-07-26 20:44:05.159,9,false,0.448298,-0.305908,0.587524,0.60022,0.906264,-0.421149,-0.120974,-0.04579,0.001937,0.05552
1722051845.1909,2024-07-26 20:44:05.190,10,false,0.448178,-0.305969,0.587646,0.600159,0.884779,-0.438239,-0.126345,-0.045813,0.002,0.055449
1722051845.2221,2024-07-26 20:44:05.222,11,false,0.448338,-0.305847,0.587463,0.600281,0.885267,-0.430426,-0.115114,-0.045932,0.001995,0.055483
1722051845.2534,2024-07-26 20:44:05.253,12,false,0.448173,-0.306091,0.587524,0.60022,0.892592,-0.42359,-0.121462,-0.046038,0.001991,0.055513
1722051845.2846,2024-07-26 20:44:05.284,13,false,0.448255,-0.306091,0.587524,0.600159,0.887709,-0.430426,-0.136599,-0.046073,0.002012,0.055541
1722051845.3159,2024-07-26 20:44:05.315,14,false,0.448214,-0.306152,0.587524,0.600159,0.888197,-0.437751,-0.111696,-0.046105,0.002128,0.055675
1722051845.3471,2024-07-26 20:44:05.347,15,false,0.448137,-0.30603,0.587646,0.600159,0.888197,-0.437751,-0.111696,-0.046109,0.002086,0.055637
1722051845.3784,2024-07-26 20:44:05.378,16,false,0.447937,-0.305969,0.587769,0.60022,0.882338,-0.433845,-0.109743,-0.046051,0.00217,0.055604
1722051845.4096,2024-07-26 20:44:05.409,17,false,0.447978,-0.305908,0.587769,0.60022,0.889174,-0.433845,-0.11902,-0.046024,0.002112,0.055585
1722051845.4409,2024-07-26 20:44:05.440,18,false,0.448095,-0.305969,0.587585,0.600281,0.889174,-0.433845,-0.11902,-0.046084,0.002182,0.055605
1722051845.4721,2024-07-26 20:44:05.472,19,false,0.448092,-0.306091,0.587524,0.600281,0.883314,-0.421149,-0.122927,-0.046029,0.002256,0.055636
1722051845.5034,2024-07-26 20:44:05.503,20,false,0.448137,-0.30603,0.587646,0.600159,0.886732,-0.41236,-0.12781,-0.045906,0.002312,0.055651
1722051845.5346,2024-07-26 20:44:05.534,21,false,0.448177,-0.306091,0.587646,0.600098,0.886732,-0.41236,-0.12781,-0.045796,0.002361,0.055665
1722051845.5659,2024-07-26 20:44:05.565,22,false,0.448053,-0.306152,0.587646,0.600159,0.886732,-0.41236,-0.12781,-0.045806,0.002357,0.055628
1722051845.5971,2024-07-26 20:44:05.597,23,false,0.447888,-0.306152,0.587585,0.600342,0.895521,-0.425055,-0.125368,-0.045754,0.002329,0.055595
1722051845.6284,2024-07-26 20:44:05.628,24,false,0.447927,-0.306213,0.587524,0.600342,0.889662,-0.427008,-0.131228,-0.045757,0.00223,0.055578
1722051845.6596,2024-07-26 20:44:05.659,25,false,0.44801,-0.306213,0.587585,0.60022,0.889662,-0.427008,-0.131228,-0.045759,0.002141,0.055562
1722051845.6909,2024-07-26 20:44:05.690,26,false,0.448008,-0.306213,0.587524,0.600281,0.888197,-0.422126,-0.126345,-0.045736,0.00222,0.055621
1722051845.7221,2024-07-26 20:44:05.722,27,false,0.448047,-0.306274,0.587463,0.600281,0.875502,-0.427008,-0.120485,-0.045777,0.002145,0.055674
1722051845.7534,2024-07-26 20:44:05.753,28,false,0.448085,-0.306335,0.587402,0.600281,0.875502,-0.427008,-0.120485,-0.045813,0.002077,0.055722
1722051845.7846,2024-07-26 20:44:05.784,29,false,0.448283,-0.306519,0.58728,0.600159,0.889174,-0.419196,-0.130739,-0.045761,0.002016,0.055765
1722051845.8159,2024-07-26 20:44:05.815,30,false,0.44836,-0.306641,0.587158,0.600159,0.891127,-0.427008,-0.122927,-0.045848,0.001973,0.055706
1722051845.8471,2024-07-26 20:44:05.847,31,false,0.448481,-0.30658,0.587097,0.600159,0.891127,-0.427008,-0.122927,-0.045926,0.001934,0.055653
1722051845.8784,2024-07-26 20:44:05.878,0,false,0.448403,-0.306458,0.587158,0.60022,0.895033,-0.425544,-0.137087,-0.045973,0.002021,0.055606
1722051845.9096,2024-07-26 20:44:05.909,1,false,0.448447,-0.306396,0.587219,0.600159,0.884291,-0.413336,-0.117067,-0.045843,0.002051,0.055514
1722051845.9409,2024-07-26 20:44:05.940,2,false,0.448325,-0.306458,0.58728,0.600159,0.884291,-0.413336,-0.117067,-0.0458,0.002102,0.05548
1722051845.9721,2024-07-26 20:44:05.972,3,false,0.448365,-0.306396,0.587219,0.60022,0.894057,-0.432868,-0.120974,-0.045749,0.002039,0.055425
1722051846.0034,2024-07-26 20:44:06.003,4,false,0.448447,-0.306396,0.587219,0.600159,0.894057,-0.432868,-0.120974,-0.045788,0.001945,0.055376
1722051846.0346,2024-07-26 20:44:06.034,5,false,0.448203,-0.306396,0.58728,0.600281,0.884779,-0.429938,-0.133181,-0.045714,0.00197,0.055417
1722051846.0659,2024-07-26 20:44:06.065,6,false,0.448127,-0.306274,0.587402,0.600281,0.887221,-0.42652,-0.117556,-0.04572,0.002029,0.055454
1722051846.0971,2024-07-26 20:44:06.097,7,false,0.448008,-0.306091,0.587463,0.600403,0.887221,-0.42652,-0.117556,-0.045726,0.002083,0.055488
1722051846.1284,2024-07-26 20:44:06.128,8,false,0.447968,-0.30603,0.587463,0.600464,0.885756,-0.430426,-0.12195,-0.045621,0.002106,0.055408
1722051846.1596,2024-07-26 20:44:06.159,9,false,0.44805,-0.30603,0.587463,0.600403,0.884291,-0.42945,-0.121462,-0.045527,0.002103,0.05536
1722051846.1909,2024-07-26 20:44:06.190,10,false,0.448127,-0.306152,0.587341,0.600403,0.884291,-0.42945,-0.121462,-0.045442,0.0021,0.055317
1722051846.2221,2024-07-26 20:44:06.222,11,false,0.448123,-0.306152,0.587219,0.600525,0.894545,-0.445075,-0.120485,-0.045402,0.00211,0.055242
1722051846.2534,2024-07-26 20:44:06.253,12,false,0.448205,-0.306152,0.587219,0.600464,0.888685,-0.419196,-0.128298,-0.045452,0.002046,0.055126
1722051846.2846,2024-07-26 20:44:06.284,13,false,0.448243,-0.306335,0.587219,0.600342,0.888685,-0.419196,-0.128298,-0.045497,0.001988,0.055021
1722051846.3159,2024-07-26 20:44:06.315,14,false,0.448365,-0.306396,0.587219,0.60022,0.883803,-0.424079,-0.119509,-0.045549,0.001984,0.054976
1722051846.3471,2024-07-26 20:44:06.347,15,false,0.448131,-0.305908,0.587402,0.600464,0.891615,-0.422614,-0.114626,-0.045486,0.002079,0.054947
1722051846.3784,2024-07-26 20:44:06.378,16,false,0.447929,-0.305847,0.587463,0.600586,0.891615,-0.417243,-0.130739,-0.045552,0.002103,0.055006
1722051846.4096,2024-07-26 20:44:06.409,17,false,0.447891,-0.305786,0.587524,0.600586,0.886732,-0.430426,-0.136599,-0.045709,0.002124,0.055097
1722051846.4409,2024-07-26 20:44:06.440,18,false,0.447811,-0.305664,0.587524,0.600708,0.888197,-0.43238,-0.125856,-0.045716,0.00229,0.05519
1722051846.4721,2024-07-26 20:44:06.472,19,false,0.44773,-0.305542,0.587524,0.60083,0.888197,-0.43238,-0.125856,-0.045722,0.00244,0.055274
1722051846.5034,2024-07-26 20:44:06.503,20,false,0.447771,-0.305359,0.587463,0.600952,0.892103,-0.444099,-0.127321,-0.045703,0.002281,0.055155
1722051846.5346,2024-07-26 20:44:06.534,21,false,0.447775,-0.305237,0.587524,0.600952,0.89601,-0.42945,-0.117067,-0.04571,0.002212,0.05512
1722051846.5659,2024-07-26 20:44:06.565,22,false,0.447734,-0.305176,0.587524,0.601013,0.89601,-0.42945,-0.117067,-0.045754,0.002162,0.055053
1722051846.5971,2024-07-26 20:44:06.597,23,false,0.447816,-0.305176,0.587524,0.600952,0.89308,-0.427008,-0.123903,-0.045768,0.002116,0.055138
1722051846.6284,2024-07-26 20:44:06.628,24,false,0.447856,-0.305237,0.587524,0.600891,0.884291,-0.433845,-0.116091,-0.045745,0.002173,0.055118
1722051846.6596,2024-07-26 20:44:06.659,25,false,0.44786,-0.305115,0.587585,0.600891,0.884291,-0.433845,-0.116091,-0.045724,0.002224,0.055099
1722051846.6909,2024-07-26 20:44:06.690,26,false,0.44794,-0.305115,0.587524,0.600891,0.885756,-0.426032,-0.133181,-0.04568,0.00221,0.055058
1722051846.7221,2024-07-26 20:44:06.722,27,false,0.4481,-0.305237,0.587463,0.600769,0.903334,-0.433356,-0.119997,-0.045751,0.00233,0.05507
1722051846.7534,2024-07-26 20:44:06.753,28,false,0.44786,-0.305115,0.587585,0.600891,0.89308,-0.427008,-0.123903,-0.045778,0.002293,0.055105
1722051846.7846,2024-07-26 20:44:06.784,29,false,0.4481,-0.305115,0.587402,0.600891,0.885756,-0.440192,-0.130739,-0.045839,0.002222,0.055173
1722051846.8159,2024-07-26 20:44:06.815,30,false,0.4481,-0.305115,0.587402,0.600891,0.892103,-0.422126,-0.118044,-0.045857,0.002195,0.055198
1722051846.8471,2024-07-26 20:44:06.847,31,false,0.448062,-0.304932,0.587463,0.600952,0.89308,-0.426032,-0.123903,-0.045666,0.002305,0.055232
1722051846.8784,2024-07-26 20:44:06.878,0,false,0.448025,-0.304749,0.587524,0.601013,0.89308,-0.426032,-0.123903,-0.045494,0.002404,0.055263
1722051846.9096,2024-07-26 20:44:06.909,1,false,0.448025,-0.304749,0.587524,0.601013,0.899916,-0.442145,-0.131228,-0.045657,0.002335,0.055328
1722051846.9409,2024-07-26 20:44:06.940,2,false,0.448146,-0.30481,0.587463,0.600952,0.897963,-0.429938,-0.123415,-0.045669,0.002358,0.055337
1722051846.9721,2024-07-26 20:44:06.972,3,false,0.448184,-0.304871,0.587402,0.600952,0.897963,-0.429938,-0.123415,-0.045606,0.002256,0.055382
1722051847.0034,2024-07-26 20:44:07.003,4,false,0.448266,-0.304871,0.587402,0.600891,0.89308,-0.439216,-0.111696,-0.045574,0.002238,0.055459
1722051847.0346,2024-07-26 20:44:07.034,5,false,0.448227,-0.30481,0.587463,0.600891,0.887709,-0.427008,-0.121462,-0.045558,0.00221,0.055394
1722051847.0659,2024-07-26 20:44:07.065,6,false,0.448189,-0.304749,0.587524,0.600891,0.887709,-0.427008,-0.121462,-0.045543,0.002184,0.055336
1722051847.0971,2024-07-26 20:44:07.097,7,false,0.448144,-0.30481,0.587402,0.601013,0.887709,-0.428962,-0.120485,-0.045542,0.002197,0.055332
1722051847.1284,2024-07-26 20:44:07.128,8,false,0.447821,-0.304688,0.587524,0.601196,0.884779,-0.423102,-0.12195,-0.045493,0.002112,0.055219
1722051847.1596,2024-07-26 20:44:07.159,9,false,0.447904,-0.304565,0.587524,0.601196,0.880873,-0.430915,-0.129763,-0.045497,0.002169,0.055288
1722051847.1909,2024-07-26 20:44:07.190,10,false,0.447865,-0.304504,0.587585,0.601196,0.886732,-0.434821,-0.123903,-0.045537,0.002062,0.055289
1722051847.2221,2024-07-26 20:44:07.222,11,false,0.447946,-0.304626,0.587585,0.601074,0.889174,-0.424567,-0.12488,-0.045646,0.002076,0.055302
1722051847.2534,2024-07-26 20:44:07.253,12,false,0.447985,-0.304688,0.587524,0.601074,0.889174,-0.424567,-0.12488,-0.045745,0.002088,0.055314
1722051847.2846,2024-07-26 20:44:07.284,13,false,0.447984,-0.30481,0.587524,0.601013,0.89308,-0.42945,-0.12781,-0.045711,0.002136,0.055239
1722051847.3159,2024-07-26 20:44:07.315,14,false,0.448106,-0.304626,0.587463,0.601074,0.884779,-0.43238,-0.131228,-0.045755,0.002191,0.055209
1722051847.3471,2024-07-26 20:44:07.347,15,false,0.448474,-0.304443,0.587402,0.600952,0.884779,-0.43238,-0.131228,-0.045793,0.00224,0.055181
1722051847.3784,2024-07-26 20:44:07.378,16,false,0.448636,-0.304443,0.587341,0.600891,0.891615,-0.425055,-0.121462,-0.045743,0.002248,0.055156
1722051847.4096,2024-07-26 20:44:07.409,17,false,0.448598,-0.304382,0.587402,0.600891,0.881361,-0.432868,-0.125856,-0.045832,0.002157,0.055183
1722051847.4409,2024-07-26 20:44:07.440,18,false,0.448556,-0.304443,0.587402,0.600891,0.881361,-0.432868,-0.125856,-0.0459,0.002088,0.055316
1722051847.4721,2024-07-26 20:44:07.472,19,false,0.448517,-0.304382,0.587463,0.600891,0.898451,-0.436286,-0.12195,-0.045863,0.002087,0.055315
1722051847.5034,2024-07-26 20:44:07.503,20,false,0.448479,-0.304321,0.587524,0.600891,0.900893,-0.43238,-0.12195,-0.045879,0.002074,0.055301
1722051847.5346,2024-07-26 20:44:07.534,21,false,0.448556,-0.304443,0.587402,0.600891,0.891615,-0.425055,-0.121462,-0.045954,0.002123,0.055227
1722051847.5659,2024-07-26 20:44:07.565,22,false,0.448359,-0.30426,0.587585,0.600952,0.891615,-0.431891,-0.119997,-0.046022,0.002167,0.055161
1722051847.5971,2024-07-26 20:44:07.597,23,false,0.448155,-0.304321,0.587646,0.601013,0.881361,-0.437263,-0.12781,-0.04601,0.002096,0.055175
1722051847.6284,2024-07-26 20:44:07.628,24,false,0.448155,-0.304321,0.587646,0.601013,0.877455,-0.441657,-0.119997,-0.046023,0.002033,0.055212
1722051847.6596,2024-07-26 20:44:07.659,25,false,0.448195,-0.30426,0.587585,0.601074,0.877455,-0.441657,-0.119997,-0.046023,0.002025,0.055233
1722051847.6909,2024-07-26 20:44:07.690,26,false,0.44828,-0.304138,0.587646,0.601013,0.885267,-0.435309,-0.13611,-0.04601,0.00203,0.055264
1722051847.7221,2024-07-26 20:44:07.722,27,false,0.44828,-0.304138,0.587646,0.601013,0.884779,-0.416754,-0.131228,-0.045963,0.002181,0.055353
1722051847.7534,2024-07-26 20:44:07.753,28,false,0.4484,-0.304199,0.587585,0.600952,0.884779,-0.416754,-0.131228,-0.04592,0.002317,0.055433
1722051847.7846,2024-07-26 20:44:07.784,29,false,0.448565,-0.304077,0.587585,0.600891,0.878431,-0.427008,-0.118532,-0.045808,0.002342,0.055407
1722051847.8159,2024-07-26 20:44:07.815,30,false,0.448607,-0.304138,0.587646,0.600769,0.891127,-0.410895,-0.135622,-0.045805,0.002303,0.055323
1722051847.8471,2024-07-26 20:44:07.847,31,false,0.448484,-0.304321,0.587708,0.600708,0.891127,-0.410895,-0.135622,-0.045826,0.00239,0.055333
1722051847.8784,2024-07-26 20:44:07.878,0,false,0.448522,-0.30426,0.587585,0.60083,0.886244,-0.417731,-0.132204,-0.045773,0.002359,0.055354
1722051847.9096,2024-07-26 20:44:07.909,1,false,0.448122,-0.304016,0.58783,0.601013,0.875013,-0.435309,-0.131228,-0.045785,0.00233,0.055263
1722051847.9409,2024-07-26 20:44:07.940,2,false,0.448166,-0.303955,0.587891,0.600952,0.882826,-0.435798,-0.128786,-0.045711,0.002256,0.055364
1722051847.9721,2024-07-26 20:44:07.972,3,false,0.448082,-0.303955,0.58783,0.601074,0.889174,-0.440681,-0.132204,-0.045669,0.002323,0.055321
1722051848.0034,2024-07-26 20:44:08.003,4,false,0.448244,-0.303955,0.587769,0.601013,0.884779,-0.435309,-0.12488,-0.045643,0.002347,0.055306
1722051848.0346,2024-07-26 20:44:08.034,5,false,0.448162,-0.303955,0.587769,0.601074,0.884779,-0.435309,-0.12488,-0.045632,0.002283,0.055306
1722051848.0659,2024-07-26 20:44:08.065,6,false,0.448363,-0.304016,0.587646,0.601013,0.89015,-0.432868,-0.130739,-0.045781,0.002226,0.055244
1722051848.0971,2024-07-26 20:44:08.097,7,false,0.448445,-0.303894,0.587646,0.601013,0.886244,-0.434821,-0.123415,-0.045781,0.002284,0.055262
1722051848.1284,2024-07-26 20:44:08.128,8,false,0.448324,-0.303955,0.587708,0.601013,0.886244,-0.434821,-0.123415,-0.04578,0.002337,0.055278
1722051848.1596,2024-07-26 20:44:08.159,9,false,0.448161,-0.303833,0.587708,0.601196,0.887221,-0.432868,-0.125368,-0.045731,0.002457,0.055365
1722051848.1909,2024-07-26 20:44:08.190,10,false,0.448243,-0.303833,0.587708,0.601135,0.892592,-0.433845,-0.113649,-0.045687,0.00248,0.055358
1722051848.2221,2024-07-26 20:44:08.222,11,false,0.448038,-0.303894,0.587708,0.601257,0.892592,-0.433845,-0.113649,-0.045708,0.002561,0.055414
1722051848.2534,2024-07-26 20:44:08.253,12,false,0.447995,-0.303955,0.587646,0.601318,0.864271,-0.435798,-0.129274,-0.045678,0.002464,0.055414
1722051848.2846,2024-07-26 20:44:08.284,13,false,0.448243,-0.303833,0.587708,0.601135,0.864271,-0.435798,-0.129274,-0.045761,0.002364,0.055427
1722051848.3159,2024-07-26 20:44:08.315,14,false,0.448113,-0.304016,0.587524,0.601318,0.886732,-0.428962,-0.120485,-0.0458,0.002213,0.0555
1722051848.3471,2024-07-26 20:44:08.347,15,false,0.448029,-0.304016,0.587463,0.60144,0.883803,-0.432868,-0.134157,-0.045724,0.002187,0.055406
