Time,Timestamp,Counter,Interpolated,Accelerometer X,Accelerometer Y,Accelerometer Z,Magnetometer X,Magnetometer Y,Magnetometer Z,Quaternion 0,Quaternion 1,Quaternion 2,Quaternion 3
1722050305.7846,2024-07-26 20:18:25.784,29,false,0.44705,-0.299622,0.583923,0.607788,0.871595,-0.44654,-0.144411,-0.045752,0.001842,0.055084
1722050305.8159,2024-07-26 20:18:25.815,30,false,0.446928,-0.299805,0.583923,0.607788,0.889174,-0.439704,-0.132204,-0.045669,0.001866,0.055069
1722050305.8471,2024-07-26 20:18:25.847,31,false,0.447055,-0.299744,0.583984,0.607666,0.876478,-0.433845,-0.142947,-0.045643,0.001777,0.055141
1722050305.8784,2024-07-26 20:18:25.878,0,false,0.446933,-0.299683,0.584045,0.607727,0.880385,-0.440681,-0.13611,-0.045669,0.001746,0.05512
1722050305.9096,2024-07-26 20:18:25.909,1,false,0.446811,-0.299622,0.584106,0.607788,0.877943,-0.445075,-0.133669,-0.045679,0.001766,0.055089
1722050305.9409,2024-07-26 20:18:25.940,2,false,0.446648,-0.299622,0.584167,0.607849,0.877943,-0.445075,-0.133669,-0.045665,0.001797,0.055232
1722050305.9721,2024-07-26 20:18:25.972,3,false,0.446567,-0.2995,0.584229,0.60791,0.882338,-0.437263,-0.140017,-0.045652,0.001703,0.055178
1722050306.0034,2024-07-26 20:18:26.003,4,false,0.446726,-0.299377,0.584106,0.607971,0.886244,-0.438727,-0.130251,-0.045664,0.001789,0.055202
1722050306.0346,2024-07-26 20:18:26.034,5,false,0.446846,-0.299316,0.584045,0.607971,0.886244,-0.438727,-0.130251,-0.045675,0.001866,0.055224
1722050306.0659,2024-07-26 20:18:26.065,6,false,0.446929,-0.299316,0.584045,0.60791,0.877943,-0.444587,-0.13904,-0.045795,0.001851,0.055231
1722050306.0971,2024-07-26 20:18:26.097,7,false,0.446892,-0.299377,0.584106,0.607849,0.882338,-0.444099,-0.13904,-0.045757,0.0018,0.055226
1722050306.1284,2024-07-26 20:18:26.128,8,false,0.446932,-0.299561,0.584045,0.607788,0.882338,-0.444099,-0.13904,-0.045722,0.001754,0.055221
1722050306.1596,2024-07-26 20:18:26.159,9,false,0.446975,-0.299744,0.584045,0.607666,0.879896,-0.440192,-0.130251,-0.045642,0.001628,0.055314
1722050306.1909,2024-07-26 20:18:26.190,10,false,0.446892,-0.299377,0.584106,0.607849,0.879896,-0.440192,-0.130251,-0.045656,0.001538,0.0553
1722050306.2221,2024-07-26 20:18:26.222,11,false,0.446854,-0.299805,0.584106,0.607666,0.881849,-0.434821,-0.127321,-0.04568,0.001592,0.055325
1722050306.2534,2024-07-26 20:18:26.253,12,false,0.44681,-0.299866,0.584045,0.607727,0.880873,-0.442145,-0.13611,-0.045617,0.001652,0.055334
1722050306.2846,2024-07-26 20:18:26.284,13,false,0.446765,-0.299805,0.583984,0.607849,0.880873,-0.442145,-0.13611,-0.045559,0.001707,0.055343
1722050306.3159,2024-07-26 20:18:26.315,14,false,0.446727,-0.299866,0.584045,0.607788,0.889174,-0.44361,-0.127321,-0.045484,0.00167,0.055229
1722050306.3471,2024-07-26 20:18:26.347,15,false,0.446771,-0.299805,0.584106,0.607727,0.871595,-0.44654,-0.129763,-0.045525,0.00165,0.055199
1722050306.3784,2024-07-26 20:18:26.378,16,false,0.446807,-0.299866,0.583984,0.607788,0.871595,-0.44654,-0.129763,-0.045562,0.001631,0.055172
1722050306.4096,2024-07-26 20:18:26.409,17,false,0.446804,-0.299866,0.583923,0.607849,0.870619,-0.433356,-0.120485,-0.045657,0.001578,0.055124
1722050306.4409,2024-07-26 20:18:26.440,18,false,0.446842,-0.299927,0.583862,0.607849,0.87306,-0.448981,-0.141482,-0.045694,0.00164,0.055032
1722050306.4721,2024-07-26 20:18:26.472,19,false,0.446846,-0.299927,0.583923,0.607788,0.87306,-0.448981,-0.141482,-0.045739,0.001708,0.054997
1722050306.5034,2024-07-26 20:18:26.503,20,false,0.446929,-0.299927,0.583923,0.607727,0.878431,-0.441657,-0.147829,-0.045816,0.001708,0.055088
1722050306.5346,2024-07-26 20:18:26.534,21,false,0.446929,-0.299927,0.583923,0.607727,0.871107,-0.448981,-0.139528,-0.045726,0.001769,0.055048
1722050306.5659,2024-07-26 20:18:26.565,22,false,0.447089,-0.300049,0.583801,0.607666,0.871107,-0.448981,-0.139528,-0.045646,0.001824,0.055012
1722050306.5971,2024-07-26 20:18:26.597,23,false,0.447297,-0.30011,0.583801,0.607483,0.871107,-0.448981,-0.139528,-0.045574,0.001874,0.05498
1722050306.6284,2024-07-26 20:18:26.628,24,false,0.447256,-0.300171,0.583801,0.607483,0.877455,-0.447517,-0.140993,-0.045679,0.001821,0.054902
1722050306.6596,2024-07-26 20:18:26.659,25,false,0.447292,-0.300232,0.583679,0.607544,0.887709,-0.437751,-0.135622,-0.045689,0.001773,0.054868
1722050306.6909,2024-07-26 20:18:26.690,26,false,0.447292,-0.300232,0.583679,0.607544,0.887709,-0.437751,-0.135622,-0.04571,0.001766,0.05485
1722050306.7221,2024-07-26 20:18:26.722,27,false,0.447288,-0.300232,0.583618,0.607605,0.87599,-0.431891,-0.135622,-0.045717,0.001687,0.054846
1722050306.7534,2024-07-26 20:18:26.753,28,false,0.447209,-0.300232,0.583679,0.607605,0.880385,-0.438727,-0.138552,-0.045723,0.001714,0.054904
1722050306.7846,2024-07-26 20:18:26.784,29,false,0.447171,-0.300293,0.58374,0.607544,0.880385,-0.438727,-0.138552,-0.045728,0.001738,0.054956
1722050306.8159,2024-07-26 20:18:26.815,30,false,0.447245,-0.300415,0.583557,0.607605,0.873549,-0.437751,-0.140993,-0.045697,0.001845,0.055063
1722050306.8471,2024-07-26 20:18:26.847,31,false,0.447284,-0.300476,0.583496,0.607605,0.874525,-0.438727,-0.143435,-0.045705,0.001795,0.055135
1722050306.8784,2024-07-26 20:18:26.878,0,false,0.447281,-0.300598,0.583435,0.607605,0.874525,-0.438727,-0.143435,-0.045712,0.00175,0.055201
1722050306.9096,2024-07-26 20:18:26.909,1,false,0.447399,-0.300659,0.583313,0.607605,0.882826,-0.434821,-0.137087,-0.045609,0.001782,0.055149
1722050306.9409,2024-07-26 20:18:26.940,2,false,0.4474,-0.300781,0.583313,0.607544,0.882338,-0.441169,-0.138064,-0.04565,0.001799,0.055177
1722050306.9721,2024-07-26 20:18:26.972,3,false,0.447281,-0.300598,0.583435,0.607605,0.873549,-0.437751,-0.140993,-0.045663,0.0019,0.055201
1722050307.0034,2024-07-26 20:18:27.003,4,false,0.447446,-0.300964,0.583374,0.607361,0.877455,-0.432868,-0.139528,-0.045601,0.001783,0.055162
1722050307.0346,2024-07-26 20:18:27.034,5,false,0.447481,-0.300903,0.583252,0.607483,0.876967,-0.442634,-0.138064,-0.045643,0.0018,0.055188
1722050307.0659,2024-07-26 20:18:27.065,6,false,0.447401,-0.300903,0.583313,0.607483,0.881849,-0.434821,-0.128298,-0.045632,0.00173,0.055077
1722050307.0971,2024-07-26 20:18:27.097,7,false,0.447398,-0.300903,0.583252,0.607544,0.881849,-0.434821,-0.128298,-0.045622,0.001667,0.054977
1722050307.1284,2024-07-26 20:18:27.128,8,false,0.44728,-0.300842,0.583374,0.607544,0.881849,-0.433356,-0.129763,-0.045637,0.001659,0.05496
1722050307.1596,2024-07-26 20:18:27.159,9,false,0.447366,-0.300842,0.583435,0.607422,0.883314,-0.442145,-0.13904,-0.045627,0.001579,0.054957
1722050307.1909,2024-07-26 20:18:27.190,10,false,0.447489,-0.300659,0.583435,0.607422,0.883314,-0.442145,-0.13904,-0.045618,0.001506,0.054955
1722050307.2221,2024-07-26 20:18:27.222,11,false,0.447693,-0.30072,0.583374,0.6073,0.885267,-0.444587,-0.132204,-0.045634,0.001514,0.05488
1722050307.2534,2024-07-26 20:18:27.253,12,false,0.447773,-0.30072,0.583313,0.6073,0.880385,-0.438727,-0.131228,-0.04566,0.00157,0.054946
1722050307.2846,2024-07-26 20:18:27.284,13,false,0.447808,-0.300781,0.583191,0.607361,0.880385,-0.438727,-0.131228,-0.045586,0.001706,0.054981
1722050307.3159,2024-07-26 20:18:27.315,14,false,0.447932,-0.300842,0.583191,0.607239,0.874037,-0.427008,-0.128298,-0.045532,0.001755,0.054903
1722050307.3471,2024-07-26 20:18:27.347,15,false,0.448013,-0.301086,0.58313,0.607117,0.886244,-0.445075,-0.123903,-0.045459,0.001739,0.054833
1722050307.3784,2024-07-26 20:18:27.378,16,false,0.448214,-0.301147,0.583008,0.607056,0.874037,-0.439704,-0.128786,-0.045405,0.001675,0.054879
1722050307.4096,2024-07-26 20:18:27.409,17,false,0.448172,-0.301086,0.583008,0.607117,0.870619,-0.433845,-0.130739,-0.045357,0.001715,0.054885
1722050307.4409,2024-07-26 20:18:27.440,18,false,0.448252,-0.301208,0.582947,0.607056,0.882826,-0.438239,-0.137087,-0.045436,0.001751,0.05478
1722050307.4721,2024-07-26 20:18:27.472,19,false,0.448176,-0.301208,0.583069,0.606995,0.882826,-0.438239,-0.137087,-0.045543,0.001746,0.054795
1722050307.5034,2024-07-26 20:18:27.503,20,false,0.448252,-0.301208,0.582947,0.607056,0.881849,-0.438239,-0.126833,-0.045493,0.001853,0.054894
1722050307.5346,2024-07-26 20:18:27.534,21,false,0.448211,-0.30127,0.582947,0.607056,0.882338,-0.424567,-0.128298,-0.045583,0.001863,0.054947
1722050307.5659,2024-07-26 20:18:27.565,22,false,0.448252,-0.301208,0.582947,0.607056,0.882338,-0.424567,-0.128298,-0.045663,0.001872,0.054994
1722050307.5971,2024-07-26 20:18:27.597,23,false,0.448376,-0.301147,0.582947,0.606995,0.885756,-0.42945,-0.139528,-0.045748,0.001831,0.054964
1722050307.6284,2024-07-26 20:18:27.628,24,false,0.448376,-0.30127,0.582947,0.606934,0.885756,-0.444099,-0.129274,-0.045726,0.001758,0.054875
1722050307.6596,2024-07-26 20:18:27.659,25,false,0.448335,-0.301331,0.582947,0.606934,0.885756,-0.444099,-0.129274,-0.045707,0.001692,0.054795
1722050307.6909,2024-07-26 20:18:27.690,26,false,0.448373,-0.30127,0.582886,0.606995,0.880385,-0.446052,-0.14197,-0.04569,0.00173,0.05487
1722050307.7221,2024-07-26 20:18:27.722,27,false,0.448452,-0.30127,0.582825,0.606995,0.87599,-0.435309,-0.131228,-0.045711,0.001606,0.054974
1722050307.7534,2024-07-26 20:18:27.753,28,false,0.448335,-0.301331,0.582947,0.606934,0.885756,-0.42945,-0.139528,-0.045742,0.00158,0.054994
1722050307.7846,2024-07-26 20:18:27.784,29,false,0.448491,-0.301331,0.582764,0.606995,0.876478,-0.439216,-0.138552,-0.04577,0.001556,0.055012
1722050307.8159,2024-07-26 20:18:27.815,30,false,0.448612,-0.301392,0.582703,0.606934,0.877943,-0.42945,-0.130251,-0.04577,0.001596,0.055053
1722050307.8471,2024-07-26 20:18:27.847,31,false,0.44845,-0.301392,0.582764,0.606995,0.877943,-0.436286,-0.136599,-0.045637,0.001656,0.055005
1722050307.8784,2024-07-26 20:18:27.878,0,false,0.448329,-0.301453,0.582825,0.606995,0.877943,-0.436286,-0.136599,-0.045516,0.00171,0.054961
1722050307.9096,2024-07-26 20:18:27.909,1,false,0.448206,-0.301514,0.582825,0.607056,0.879408,-0.42652,-0.123903,-0.045469,0.001734,0.054946
1722050307.9409,2024-07-26 20:18:27.940,2,false,0.447961,-0.301514,0.582886,0.607178,0.884291,-0.435798,-0.135134,-0.045524,0.001756,0.054932
1722050307.9721,2024-07-26 20:18:27.972,3,false,0.447926,-0.301575,0.583008,0.607056,0.884291,-0.435798,-0.135134,-0.045574,0.001776,0.05492
1722050308.0034,2024-07-26 20:18:28.003,4,false,0.44793,-0.301575,0.583069,0.606995,0.885267,-0.448493,-0.142458,-0.04568,0.001757,0.054946
1722050308.0346,2024-07-26 20:18:28.034,5,false,0.447889,-0.301636,0.583069,0.606995,0.879408,-0.431891,-0.119509,-0.045714,0.00174,0.054969
1722050308.0659,2024-07-26 20:18:28.065,6,false,0.447848,-0.301819,0.583069,0.606934,0.879408,-0.431891,-0.119509,-0.045671,0.001835,0.055124
1722050308.0971,2024-07-26 20:18:28.097,7,false,0.447684,-0.302307,0.583069,0.606812,0.879408,-0.431891,-0.119509,-0.045633,0.00192,0.055263
1722050308.1284,2024-07-26 20:18:28.128,8,false,0.447639,-0.302368,0.583008,0.606873,0.874037,-0.430426,-0.138064,-0.045562,0.001874,0.055206
1722050308.1596,2024-07-26 20:18:28.159,9,false,0.447675,-0.302551,0.582886,0.606873,0.875013,-0.426032,-0.135622,-0.045596,0.001833,0.055179
1722050308.1909,2024-07-26 20:18:28.190,10,false,0.447595,-0.302673,0.582947,0.606812,0.875013,-0.426032,-0.135622,-0.045626,0.001796,0.055154
1722050308.2221,2024-07-26 20:18:28.222,11,false,0.44764,-0.302734,0.583008,0.606689,0.880873,-0.427985,-0.139528,-0.045653,0.001788,0.055132
1722050308.2534,2024-07-26 20:18:28.253,12,false,0.447643,-0.302734,0.583069,0.606628,0.882338,-0.434821,-0.137087,-0.04569,0.001743,0.055075
1722050308.2846,2024-07-26 20:18:28.284,13,false,0.447764,-0.302795,0.583008,0.606567,0.882338,-0.434821,-0.137087,-0.045699,0.001764,0.055024
1722050308.3159,2024-07-26 20:18:28.315,14,false,0.447885,-0.302856,0.582947,0.606506,0.886732,-0.430426,-0.129763,-0.045731,0.001783,0.054979
1722050308.3471,2024-07-26 20:18:28.347,15,false,0.447761,-0.302917,0.582947,0.606567,0.872084,-0.442634,-0.13611,-0.045858,0.001678,0.054998
1722050308.3784,2024-07-26 20:18:28.378,16,false,0.44772,-0.302979,0.582947,0.606567,0.872084,-0.442634,-0.13611,-0.045972,0.001583,0.055016
1722050308.4096,2024-07-26 20:18:28.409,17,false,0.447803,-0.302979,0.582947,0.606506,0.881849,-0.441657,-0.132204,-0.045842,0.001633,0.055105
1722050308.4409,2024-07-26 20:18:28.440,18,false,0.448041,-0.302979,0.582764,0.606506,0.881361,-0.437751,-0.131228,-0.04586,0.001726,0.055076
1722050308.4721,2024-07-26 20:18:28.472,19,false,0.448076,-0.303162,0.582642,0.606506,0.881361,-0.437751,-0.131228,-0.045876,0.00181,0.055049
1722050308.5034,2024-07-26 20:18:28.503,20,false,0.447803,-0.302979,0.582947,0.606506,0.895033,-0.43238,-0.13611,-0.045793,0.001824,0.055001
1722050308.5346,2024-07-26 20:18:28.534,21,false,0.447993,-0.303162,0.582642,0.606567,0.895033,-0.43238,-0.13611,-0.045718,0.001837,0.054958
1722050308.5659,2024-07-26 20:18:28.565,22,false,0.447948,-0.303101,0.582581,0.606689,0.889662,-0.442634,-0.126833,-0.045639,0.001861,0.054992
1722050308.5971,2024-07-26 20:18:28.597,23,false,0.448069,-0.303162,0.58252,0.606628,0.885756,-0.419684,-0.134646,-0.045824,0.001907,0.055083
1722050308.6284,2024-07-26 20:18:28.628,24,false,0.447993,-0.303162,0.582642,0.606567,0.885756,-0.419684,-0.134646,-0.045856,0.001765,0.055166
1722050308.6596,2024-07-26 20:18:28.659,25,false,0.447869,-0.303101,0.582642,0.606689,0.891615,-0.430915,-0.132204,-0.045762,0.00182,0.055143
1722050308.6909,2024-07-26 20:18:28.690,26,false,0.447545,-0.302856,0.582764,0.606934,0.880385,-0.43238,-0.122438,-0.045727,0.001833,0.055109
1722050308.7221,2024-07-26 20:18:28.722,27,false,0.44734,-0.302551,0.582825,0.607178,0.880385,-0.43238,-0.122438,-0.045695,0.001845,0.05508
1722050308.7534,2024-07-26 20:18:28.753,28,false,0.447267,-0.302429,0.583008,0.607117,0.874525,-0.420661,-0.128786,-0.04574,0.001746,0.05504
1722050308.7846,2024-07-26 20:18:28.784,29,false,0.447308,-0.302368,0.583008,0.607117,0.885267,-0.436774,-0.134646,-0.045756,0.001682,0.055066
1722050308.8159,2024-07-26 20:18:28.815,30,false,0.447349,-0.302185,0.583008,0.607178,0.885267,-0.436774,-0.134646,-0.045819,0.001587,0.055041
1722050308.8471,2024-07-26 20:18:28.847,31,false,0.447349,-0.302185,0.583008,0.607178,0.87306,-0.433845,-0.135134,-0.045852,0.001513,0.054981
1722050308.8784,2024-07-26 20:18:28.878,0,false,0.447343,-0.302307,0.582886,0.607239,0.879408,-0.450446,-0.143923,-0.045844,0.001521,0.054903
1722050308.9096,2024-07-26 20:18:28.909,1,false,0.447267,-0.302307,0.583008,0.607178,0.880385,-0.448493,-0.134157,-0.045874,0.00154,0.054906
1722050308.9409,2024-07-26 20:18:28.940,2,false,0.447225,-0.302246,0.583008,0.607239,0.888685,-0.433356,-0.12195,-0.045901,0.001618,0.054823
1722050308.9721,2024-07-26 20:18:28.972,3,false,0.447225,-0.302246,0.583008,0.607239,0.884291,-0.431403,-0.123415,-0.045962,0.001688,0.05481
1722050309.0034,2024-07-26 20:18:29.003,4,false,0.447387,-0.302002,0.582947,0.6073,0.884291,-0.431403,-0.123415,-0.046017,0.001751,0.054797
1722050309.0346,2024-07-26 20:18:29.034,5,false,0.447228,-0.302002,0.583069,0.6073,0.884291,-0.435798,-0.135134,-0.045907,0.001722,0.054811
1722050309.0659,2024-07-26 20:18:29.065,6,false,0.446986,-0.302124,0.583191,0.6073,0.889662,-0.424079,-0.126833,-0.045919,0.001587,0.054933
1722050309.0971,2024-07-26 20:18:29.097,7,false,0.447024,-0.302185,0.58313,0.6073,0.889662,-0.424079,-0.126833,-0.045929,0.001465,0.055043
1722050309.1284,2024-07-26 20:18:29.128,8,false,0.44682,-0.302124,0.583191,0.607422,0.886732,-0.445563,-0.126345,-0.046085,0.001465,0.055154
1722050309.1596,2024-07-26 20:18:29.159,9,false,0.446746,-0.30188,0.583374,0.607422,0.880873,-0.427497,-0.129763,-0.046127,0.001526,0.055229
1722050309.1909,2024-07-26 20:18:29.190,10,false,0.446872,-0.301575,0.583435,0.607422,0.880873,-0.427497,-0.129763,-0.046165,0.001581,0.055297
1722050309.2221,2024-07-26 20:18:29.222,11,false,0.446709,-0.301453,0.583496,0.607544,0.887709,-0.44361,-0.138064,-0.046078,0.001569,0.055322
1722050309.2534,2024-07-26 20:18:29.253,12,false,0.446709,-0.301453,0.583496,0.607544,0.87892,-0.439704,-0.133181,-0.045974,0.001485,0.055307
1722050309.2846,2024-07-26 20:18:29.284,13,false,0.446872,-0.301575,0.583435,0.607422,0.886732,-0.445563,-0.126345,-0.045881,0.001435,0.055294
1722050309.3159,2024-07-26 20:18:29.315,14,false,0.446665,-0.301514,0.583435,0.607605,0.888197,-0.444587,-0.136599,-0.045798,0.001389,0.055283
1722050309.3471,2024-07-26 20:18:29.347,15,false,0.44662,-0.301575,0.583374,0.607666,0.895521,-0.440192,-0.14197,-0.04593,0.001421,0.055309
1722050309.3784,2024-07-26 20:18:29.378,16,false,0.446779,-0.301575,0.583252,0.607666,0.874037,-0.425544,-0.138064,-0.045976,0.001376,0.055173
1722050309.4096,2024-07-26 20:18:29.409,17,false,0.446734,-0.301514,0.583191,0.607788,0.874037,-0.425544,-0.138064,-0.045907,0.001446,0.055271
1722050309.4409,2024-07-26 20:18:29.440,18,false,0.4469,-0.301392,0.583191,0.607727,0.881361,-0.445563,-0.137575,-0.045857,0.00168,0.055286
1722050309.4721,2024-07-26 20:18:29.472,19,false,0.446695,-0.301331,0.583252,0.607849,0.891615,-0.438727,-0.133669,-0.045825,0.001781,0.055226
1722050309.5034,2024-07-26 20:18:29.503,20,false,0.446777,-0.301086,0.583252,0.60791,0.891615,-0.438727,-0.133669,-0.045893,0.001773,0.055234
1722050309.5346,2024-07-26 20:18:29.534,21,false,0.446776,-0.300964,0.583252,0.607971,0.884779,-0.442145,-0.134157,-0.045918,0.001804,0.055265
1722050309.5659,2024-07-26 20:18:29.565,22,false,0.446612,-0.300842,0.583313,0.608093,0.889662,-0.436286,-0.13904,-0.045904,0.001819,0.055256
1722050309.5971,2024-07-26 20:18:29.597,23,false,0.446698,-0.30072,0.583374,0.608032,0.889662,-0.436286,-0.13904,-0.045892,0.001832,0.055248
1722050309.6284,2024-07-26 20:18:29.628,24,false,0.446648,-0.300537,0.583252,0.608276,0.889662,-0.436286,-0.13904,-0.045734,0.001795,0.055216
1722050309.6596,2024-07-26 20:18:29.659,25,false,0.446769,-0.300476,0.583191,0.608276,0.869642,-0.433845,-0.133669,-0.045714,0.001762,0.055225
1722050309.6909,2024-07-26 20:18:29.690,26,false,0.446726,-0.300293,0.583191,0.608398,0.876967,-0.446052,-0.132692,-0.045732,0.001757,0.055171
1722050309.7221,2024-07-26 20:18:29.722,27,false,0.44685,-0.300232,0.583191,0.608337,0.876967,-0.446052,-0.132692,-0.045749,0.001728,0.055123
1722050309.7534,2024-07-26 20:18:29.753,28,false,0.446972,-0.300293,0.58313,0.608276,0.865248,-0.438239,-0.134646,-0.045715,0.00175,0.055214
1722050309.7846,2024-07-26 20:18:29.784,29,false,0.447093,-0.300354,0.583069,0.608215,0.868177,-0.444099,-0.138064,-0.045721,0.001734,0.055149
1722050309.8159,2024-07-26 20:18:29.815,30,false,0.447218,-0.300415,0.583069,0.608093,0.868177,-0.444099,-0.138064,-0.045727,0.001719,0.055091
1722050309.8471,2024-07-26 20:18:29.847,31,false,0.447218,-0.300415,0.583069,0.608093,0.872572,-0.438727,-0.127321,-0.045744,0.001718,0.055172
1722050309.8784,2024-07-26 20:18:29.878,0,false,0.447301,-0.300415,0.583069,0.608032,0.882826,-0.445563,-0.137087,-0.045882,0.001754,0.055124
1722050309.9096,2024-07-26 20:18:29.909,1,false,0.447342,-0.300354,0.583069,0.608032,0.882826,-0.445563,-0.137087,-0.046005,0.001786,0.05508
1722050309.9409,2024-07-26 20:18:29.940,2,false,0.447422,-0.300354,0.583008,0.608032,0.879408,-0.424079,-0.143435,-0.045983,0.001742,0.055114
1722050309.9721,2024-07-26 20:18:29.972,3,false,0.447341,-0.300232,0.583069,0.608093,0.883314,-0.450935,-0.137575,-0.045986,0.001726,0.055182
1722050310.0034,2024-07-26 20:18:30.003,4,false,0.447303,-0.300171,0.58313,0.608093,0.883314,-0.450935,-0.137575,-0.04599,0.001712,0.055242
1722050310.0346,2024-07-26 20:18:30.034,5,false,0.447422,-0.300354,0.583008,0.608032,0.867201,-0.442145,-0.136599,-0.045969,0.001675,0.055346
1722050310.0659,2024-07-26 20:18:30.065,6,false,0.447185,-0.300232,0.583252,0.608032,0.867201,-0.442145,-0.136599,-0.045949,0.001642,0.055439
1722050310.0971,2024-07-26 20:18:30.097,7,false,0.44706,-0.300171,0.583252,0.608154,0.878431,-0.431891,-0.133181,-0.045932,0.001551,0.055473
1722050310.1284,2024-07-26 20:18:30.128,8,false,0.447057,-0.300171,0.583191,0.608215,0.894057,-0.436286,-0.135134,-0.045941,0.00153,0.055383
1722050310.1596,2024-07-26 20:18:30.159,9,false,0.447015,-0.30011,0.583191,0.608276,0.894057,-0.436286,-0.135134,-0.045888,0.001475,0.055264
1722050310.1909,2024-07-26 20:18:30.190,10,false,0.447097,-0.299988,0.583191,0.608276,0.879408,-0.442145,-0.121462,-0.045938,0.001401,0.055158
1722050310.2221,2024-07-26 20:18:30.222,11,false,0.447021,-0.299988,0.583313,0.608215,0.882338,-0.437263,-0.135622,-0.045995,0.001468,0.055196
1722050310.2534,2024-07-26 20:18:30.253,12,false,0.447024,-0.299988,0.583374,0.608154,0.882338,-0.437263,-0.135622,-0.046047,0.001529,0.055231
1722050310.2846,2024-07-26 20:18:30.284,13,false,0.446817,-0.300049,0.583374,0.608276,0.881361,-0.443122,-0.133669,-0.046044,0.001596,0.055128
1722050310.3159,2024-07-26 20:18:30.315,14,false,0.446689,-0.30011,0.583313,0.608398,0.871107,-0.434821,-0.120974,-0.046042,0.001692,0.055096
1722050310.3471,2024-07-26 20:18:30.347,15,false,0.446726,-0.299927,0.583252,0.608521,0.871107,-0.434821,-0.120974,-0.046137,0.001743,0.055068
1722050310.3784,2024-07-26 20:18:30.378,16,false,0.446643,-0.299927,0.583252,0.608582,0.877455,-0.42652,-0.142458,-0.046028,0.001764,0.055079
1722050310.4096,2024-07-26 20:18:30.409,17,false,0.446606,-0.299744,0.583374,0.608582,0.879896,-0.445563,-0.140993,-0.045954,0.001673,0.05504
1722050310.4409,2024-07-26 20:18:30.440,18,false,0.446567,-0.299683,0.583435,0.608582,0.865736,-0.434821,-0.130251,-0.046059,0.001603,0.054992
1722050310.4721,2024-07-26 20:18:30.472,19,false,0.446689,-0.299744,0.583374,0.608521,0.883314,-0.431891,-0.150759,-0.045994,0.001663,0.054889
1722050310.5034,2024-07-26 20:18:30.503,20,false,0.446731,-0.299805,0.583374,0.608459,0.882826,-0.438727,-0.125368,-0.045997,0.001716,0.054856
1722050310.5346,2024-07-26 20:18:30.534,21,false,0.446854,-0.299622,0.583374,0.608459,0.882826,-0.438727,-0.125368,-0.045999,0.001764,0.054827
1722050310.5659,2024-07-26 20:18:30.565,22,false,0.44681,-0.299683,0.583313,0.608521,0.876967,-0.437263,-0.139528,-0.04616,0.001661,0.054923
1722050310.5971,2024-07-26 20:18:30.597,23,false,0.446893,-0.299683,0.583313,0.608459,0.883803,-0.442145,-0.141482,-0.046158,0.001703,0.054924
1722050310.6284,2024-07-26 20:18:30.628,24,false,0.446736,-0.299561,0.583496,0.608459,0.883803,-0.442145,-0.141482,-0.046157,0.00174,0.054925
1722050310.6596,2024-07-26 20:18:30.659,25,false,0.446653,-0.299561,0.583496,0.608521,0.892592,-0.448981,-0.145388,-0.046192,0.001712,0.054987
1722050310.6909,2024-07-26 20:18:30.690,26,false,0.44673,-0.299683,0.583374,0.608521,0.885756,-0.443122,-0.13904,-0.046163,0.001688,0.054957
1722050310.7221,2024-07-26 20:18:30.722,27,false,0.446646,-0.299927,0.583313,0.608521,0.885756,-0.443122,-0.13904,-0.046136,0.001665,0.05493
1722050310.7534,2024-07-26 20:18:30.753,28,false,0.446649,-0.299927,0.583374,0.608459,0.883803,-0.439704,-0.147829,-0.046161,0.001657,0.054833
1722050310.7846,2024-07-26 20:18:30.784,29,false,0.446409,-0.299805,0.583557,0.608521,0.882826,-0.441169,-0.12488,-0.046025,0.00165,0.054891
1722050310.8159,2024-07-26 20:18:30.815,30,false,0.446646,-0.299927,0.583313,0.608521,0.892592,-0.448981,-0.145388,-0.046001,0.001705,0.054859
1722050310.8471,2024-07-26 20:18:30.847,31,false,0.446488,-0.299683,0.583496,0.608582,0.874525,-0.442634,-0.142947,-0.045978,0.001754,0.05483
1722050310.8784,2024-07-26 20:18:30.878,0,false,0.446404,-0.299683,0.583496,0.608643,0.881849,-0.448005,-0.134646,-0.045934,0.001811,0.054791
1722050310.9096,2024-07-26 20:18:30.909,1,false,0.446603,-0.299744,0.583313,0.608643,0.886732,-0.438727,-0.131228,-0.04593,0.001837,0.054903
1722050310.9409,2024-07-26 20:18:30.940,2,false,0.446523,-0.299744,0.583374,0.608643,0.886732,-0.438727,-0.131228,-0.045927,0.001861,0.055004
1722050310.9721,2024-07-26 20:18:30.972,3,false,0.446641,-0.299805,0.583252,0.608643,0.880385,-0.431891,-0.144411,-0.045924,0.001907,0.055033
1722050311.0034,2024-07-26 20:18:31.003,4,false,0.446767,-0.299866,0.583252,0.608521,0.882338,-0.446052,-0.130739,-0.045726,0.001948,0.05506
1722050311.0346,2024-07-26 20:18:31.034,5,false,0.446848,-0.299988,0.583191,0.608459,0.882338,-0.446052,-0.130739,-0.045548,0.001985,0.055084
1722050311.0659,2024-07-26 20:18:31.065,6,false,0.44677,-0.299866,0.583313,0.608459,0.880873,-0.42652,-0.128786,-0.045474,0.001945,0.055056
1722050311.0971,2024-07-26 20:18:31.097,7,false,0.446687,-0.299866,0.583313,0.608521,0.875013,-0.441657,-0.127321,-0.045467,0.002032,0.055215
1722050311.1284,2024-07-26 20:18:31.128,8,false,0.446444,-0.299866,0.583435,0.608582,0.875013,-0.441657,-0.127321,-0.045462,0.002109,0.055357
1722050311.1596,2024-07-26 20:18:31.159,9,false,0.446605,-0.299622,0.583374,0.608643,0.874525,-0.440681,-0.138064,-0.045518,0.002057,0.0554
1722050311.1909,2024-07-26 20:18:31.190,10,false,0.446602,-0.299377,0.583374,0.608765,0.882338,-0.430426,-0.137575,-0.045556,0.00212,0.055476
1722050311.2221,2024-07-26 20:18:31.222,11,false,0.446682,-0.299377,0.583313,0.608765,0.869642,-0.44361,-0.138552,-0.045615,0.002115,0.055458
1722050311.2534,2024-07-26 20:18:31.253,12,false,0.446678,-0.299377,0.583252,0.608826,0.882338,-0.434333,-0.12781,-0.045643,0.00205,0.055442
1722050311.2846,2024-07-26 20:18:31.284,13,false,0.446675,-0.299377,0.583191,0.608887,0.881361,-0.445075,-0.131228,-0.045571,0.002016,0.055281
1722050311.3159,2024-07-26 20:18:31.315,14,false,0.446717,-0.299438,0.583191,0.608826,0.881361,-0.445075,-0.131228,-0.045616,0.002071,0.055234
1722050311.3471,2024-07-26 20:18:31.347,15,false,0.44663,-0.299438,0.58313,0.608948,0.886244,-0.437751,-0.14197,-0.045595,0.001998,0.055228
1722050311.3784,2024-07-26 20:18:31.378,16,false,0.44659,-0.2995,0.58313,0.608948,0.877455,-0.436286,-0.148806,-0.045638,0.001957,0.055101
1722050311.4096,2024-07-26 20:18:31.409,17,false,0.446505,-0.299377,0.58313,0.60907,0.877455,-0.436286,-0.148806,-0.045676,0.00192,0.054987
1722050311.4409,2024-07-26 20:18:31.440,18,false,0.446587,-0.299255,0.58313,0.60907,0.871107,-0.437751,-0.139528,-0.045711,0.001923,0.055067
1722050311.4721,2024-07-26 20:18:31.472,19,false,0.446546,-0.299316,0.58313,0.60907,0.873549,-0.442634,-0.140017,-0.045644,0.001926,0.055041
1722050311.5034,2024-07-26 20:18:31.503,20,false,0.446425,-0.299377,0.583191,0.60907,0.873549,-0.442634,-0.140017,-0.04567,0.00188,0.055067
1722050311.5346,2024-07-26 20:18:31.534,21,false,0.446349,-0.299377,0.583313,0.609009,0.892103,-0.435798,-0.134157,-0.045607,0.001851,0.055078
1722050311.5659,2024-07-26 20:18:31.565,22,false,0.446223,-0.299316,0.583313,0.609131,0.880385,-0.438239,-0.140993,-0.045661,0.001873,0.054978
1722050311.5971,2024-07-26 20:18:31.597,23,false,0.446425,-0.299377,0.583191,0.60907,0.871107,-0.437751,-0.139528,-0.045697,0.002089,0.054937
1722050311.6284,2024-07-26 20:18:31.628,24,false,0.446223,-0.299316,0.583313,0.609131,0.877455,-0.447028,-0.133669,-0.045729,0.002283,0.0549
1722050311.6596,2024-07-26 20:18:31.659,25,false,0.446148,-0.299438,0.583435,0.609009,0.878431,-0.452399,-0.133181,-0.045697,0.00225,0.054866
1722050311.6909,2024-07-26 20:18:31.690,26,false,0.44615,-0.299561,0.583435,0.608948,0.879408,-0.453376,-0.134646,-0.045718,0.002135,0.054848
1722050311.7221,2024-07-26 20:18:31.722,27,false,0.446151,-0.299683,0.583435,0.608887,0.879408,-0.453376,-0.134646,-0.04565,0.002141,0.054845
1722050311.7534,2024-07-26 20:18:31.753,28,false,0.446271,-0.299866,0.583313,0.608826,0.865736,-0.436774,-0.126345,-0.0457,0.002098,0.054914
1722050311.7846,2024-07-26 20:18:31.784,29,false,0.44615,-0.299927,0.583374,0.608826,0.874525,-0.435798,-0.141482,-0.045671,0.002022,0.054904
1722050311.8159,2024-07-26 20:18:31.815,30,false,0.446277,-0.30011,0.583374,0.608643,0.874525,-0.435798,-0.141482,-0.045645,0.001954,0.054895
1722050311.8471,2024-07-26 20:18:31.847,31,false,0.446403,-0.300293,0.583374,0.608459,0.889662,-0.457282,-0.125368,-0.045719,0.001832,0.054947
1722050311.8784,2024-07-26 20:18:31.878,0,false,0.446447,-0.300476,0.583374,0.608337,0.887709,-0.442145,-0.137087,-0.045835,0.001734,0.05486
1722050311.9096,2024-07-26 20:18:31.909,1,false,0.446246,-0.300537,0.583496,0.608337,0.887709,-0.442145,-0.137087,-0.045939,0.001646,0.054782
1722050311.9409,2024-07-26 20:18:31.940,2,false,0.446204,-0.300476,0.583496,0.608398,0.881361,-0.431891,-0.130251,-0.045935,0.001714,0.054748
1722050311.9721,2024-07-26 20:18:31.972,3,false,0.446163,-0.300537,0.583496,0.608398,0.876478,-0.437751,-0.138552,-0.046029,0.001689,0.054681
1722050312.0034,2024-07-26 20:18:32.003,4,false,0.446326,-0.300537,0.583435,0.608337,0.882826,-0.438239,-0.12488,-0.046126,0.001715,0.05467
1722050312.0346,2024-07-26 20:18:32.034,5,false,0.446321,-0.300415,0.583374,0.608459,0.876478,-0.437751,-0.128298,-0.046091,0.001678,0.054745
1722050312.0659,2024-07-26 20:18:32.065,6,false,0.44644,-0.300476,0.583252,0.608459,0.886732,-0.432868,-0.142947,-0.045974,0.001718,0.054739
1722050312.0971,2024-07-26 20:18:32.097,7,false,0.446604,-0.300598,0.583191,0.608337,0.886732,-0.432868,-0.142947,-0.045869,0.001753,0.054734
1722050312.1284,2024-07-26 20:18:32.128,8,false,0.446607,-0.300598,0.583252,0.608276,0.87599,-0.444099,-0.120485,-0.045872,0.00181,0.054852
1722050312.1596,2024-07-26 20:18:32.159,9,false,0.446608,-0.30072,0.583252,0.608215,0.869154,-0.431403,-0.123415,-0.045875,0.001837,0.054835
1722050312.1909,2024-07-26 20:18:32.190,10,false,0.446647,-0.300903,0.583191,0.608154,0.869154,-0.431403,-0.123415,-0.045877,0.001763,0.054943
1722050312.2221,2024-07-26 20:18:32.222,11,false,0.44681,-0.300903,0.58313,0.608093,0.888197,-0.442145,-0.137087,-0.045892,0.001745,0.055052
1722050312.2534,2024-07-26 20:18:32.253,12,false,0.446852,-0.300964,0.58313,0.608032,0.875013,-0.443122,-0.13904,-0.045917,0.001778,0.055076
1722050312.2846,2024-07-26 20:18:32.284,13,false,0.446777,-0.301086,0.583252,0.60791,0.875013,-0.443122,-0.13904,-0.045939,0.001808,0.055098
1722050312.3159,2024-07-26 20:18:32.315,14,false,0.446649,-0.301147,0.583191,0.608032,0.885756,-0.439704,-0.133181,-0.045935,0.001737,0.055143
1722050312.3471,2024-07-26 20:18:32.347,15,false,0.446852,-0.300964,0.58313,0.608032,0.885756,-0.439704,-0.133181,-0.045932,0.001673,0.055183
1722050312.3784,2024-07-26 20:18:32.378,16,false,0.446768,-0.301331,0.583069,0.607971,0.879896,-0.44361,-0.124392,-0.045831,0.001591,0.05528
1722050312.4096,2024-07-26 20:18:32.409,17,false,0.446602,-0.301331,0.583069,0.608093,0.883803,-0.435309,-0.134157,-0.045789,0.00153,0.055209
1722050312.4409,2024-07-26 20:18:32.440,18,false,0.44648,-0.30127,0.58313,0.608154,0.883803,-0.435309,-0.134157,-0.045788,0.001511,0.055144
1722050312.4721,2024-07-26 20:18:32.472,19,false,0.446237,-0.301147,0.583252,0.608276,0.883803,-0.42652,-0.129274,-0.045713,0.00158,0.055233
1722050312.5034,2024-07-26 20:18:32.503,20,false,0.446275,-0.301208,0.583191,0.608276,0.875502,-0.431403,-0.138064,-0.045744,0.001703,0.055227
1722050312.5346,2024-07-26 20:18:32.534,21,false,0.446317,-0.30127,0.583191,0.608215,0.875502,-0.431403,-0.138064,-0.045772,0.001813,0.055222
1722050312.5659,2024-07-26 20:18:32.565,22,false,0.446357,-0.301453,0.58313,0.608154,0.888685,-0.43238,-0.130739,-0.045833,0.001912,0.055181
1722050312.5971,2024-07-26 20:18:32.597,23,false,0.446398,-0.301514,0.58313,0.608093,0.886732,-0.447517,-0.134157,-0.04584,0.001929,0.055071
1722050312.6284,2024-07-26 20:18:32.628,24,false,0.446239,-0.301514,0.583252,0.608093,0.886732,-0.447517,-0.134157,-0.045846,0.001943,0.054972
1722050312.6596,2024-07-26 20:18:32.659,25,false,0.446163,-0.301636,0.583374,0.607971,0.876478,-0.433845,-0.137575,-0.045949,0.002042,0.054943
1722050312.6909,2024-07-26 20:18:32.690,26,false,0.446161,-0.301758,0.583313,0.607971,0.891615,-0.43238,-0.131228,-0.045932,0.001972,0.05493
1722050312.7221,2024-07-26 20:18:32.722,27,false,0.446085,-0.30188,0.583435,0.607849,0.891615,-0.43238,-0.131228,-0.045916,0.001909,0.054918
1722050312.7534,2024-07-26 20:18:32.753,28,false,0.446002,-0.302002,0.583435,0.607849,0.891615,-0.43238,-0.131228,-0.045902,0.001914,0.055005
1722050312.7846,2024-07-26 20:18:32.784,29,false,0.446082,-0.302124,0.583374,0.607788,0.881849,-0.436286,-0.133669,-0.045804,0.001869,0.054998
1722050312.8159,2024-07-26 20:18:32.815,30,false,0.446162,-0.302124,0.583313,0.607788,0.873549,-0.442145,-0.12781,-0.045814,0.001889,0.054967
1722050312.8471,2024-07-26 20:18:32.847,31,false,0.446158,-0.302246,0.583252,0.607788,0.873549,-0.442145,-0.12781,-0.045822,0.001908,0.054939
1722050312.8784,2024-07-26 20:18:32.878,0,false,0.446038,-0.302307,0.583313,0.607788,0.89308,-0.444099,-0.141482,-0.045781,0.001912,0.054987
1722050312.9096,2024-07-26 20:18:32.909,1,false,0.446035,-0.302429,0.583252,0.607788,0.89015,-0.428473,-0.132692,-0.045756,0.002014,0.055043
1722050312.9409,2024-07-26 20:18:32.940,2,false,0.44607,-0.30249,0.58313,0.607849,0.89015,-0.428473,-0.132692,-0.045734,0.002106,0.055093
1722050312.9721,2024-07-26 20:18:32.972,3,false,0.446153,-0.30249,0.58313,0.607788,0.884779,-0.436774,-0.129763,-0.045641,0.002115,0.055187
1722050313.0034,2024-07-26 20:18:33.003,4,false,0.446153,-0.30249,0.58313,0.607788,0.883314,-0.439216,-0.129274,-0.045654,0.002123,0.055271
1722050313.0346,2024-07-26 20:18:33.034,5,false,0.446153,-0.30249,0.58313,0.607788,0.883314,-0.439216,-0.129274,-0.045667,0.002131,0.055347
1722050313.0659,2024-07-26 20:18:33.065,6,false,0.446153,-0.302368,0.58313,0.607849,0.892592,-0.444099,-0.131228,-0.045531,0.002149,0.055196
1722050313.0971,2024-07-26 20:18:33.097,7,false,0.446195,-0.302429,0.58313,0.607788,0.880385,-0.42652,-0.143923,-0.045556,0.002154,0.055133
1722050313.1284,2024-07-26 20:18:33.128,8,false,0.446153,-0.30249,0.58313,0.607788,0.884779,-0.436774,-0.129763,-0.045553,0.00211,0.055027
1722050313.1596,2024-07-26 20:18:33.159,9,false,0.445907,-0.30249,0.583191,0.60791,0.883803,-0.436286,-0.129763,-0.045551,0.00207,0.054932
1722050313.1909,2024-07-26 20:18:33.190,10,false,0.44599,-0.302368,0.583191,0.60791,0.875013,-0.439704,-0.13611,-0.045647,0.002009,0.054969
1722050313.2221,2024-07-26 20:18:33.222,11,false,0.44599,-0.302246,0.583191,0.607971,0.885756,-0.427497,-0.134157,-0.045611,0.002077,0.054965
1722050313.2534,2024-07-26 20:18:33.253,12,false,0.445951,-0.302185,0.583252,0.607971,0.885756,-0.427497,-0.134157,-0.045579,0.002138,0.054962
1722050313.2846,2024-07-26 20:18:33.284,13,false,0.445951,-0.302185,0.583252,0.607971,0.880385,-0.434333,-0.128786,-0.045562,0.002022,0.055008
1722050313.3159,2024-07-26 20:18:33.315,14,false,0.446076,-0.302124,0.583252,0.60791,0.89015,-0.42945,-0.140505,-0.045486,0.001978,0.055086
1722050313.3471,2024-07-26 20:18:33.347,15,false,0.446117,-0.302185,0.583252,0.607849,0.89015,-0.42945,-0.140505,-0.045418,0.001939,0.055156
1722050313.3784,2024-07-26 20:18:33.378,16,false,0.446281,-0.302307,0.583191,0.607727,0.885756,-0.437751,-0.135622,-0.045478,0.001879,0.055329
1722050313.4096,2024-07-26 20:18:33.409,17,false,0.446402,-0.302368,0.58313,0.607666,0.900404,-0.425055,-0.133669,-0.04541,0.00185,0.055424
1722050313.4409,2024-07-26 20:18:33.440,18,false,0.446483,-0.302612,0.583069,0.607544,0.900404,-0.425055,-0.133669,-0.045349,0.001824,0.055509
1722050313.4721,2024-07-26 20:18:33.472,19,false,0.446122,-0.302429,0.583313,0.607666,0.900404,-0.425055,-0.133669,-0.045416,0.001898,0.055561
1722050313.5034,2024-07-26 20:18:33.503,20,false,0.446042,-0.302429,0.583374,0.607666,0.884779,-0.434333,-0.128298,-0.045428,0.001916,0.05562
1722050313.5346,2024-07-26 20:18:33.534,21,false,0.446039,-0.302429,0.583313,0.607727,0.884779,-0.435309,-0.126345,-0.045487,0.001919,0.055576
1722050313.5659,2024-07-26 20:18:33.565,22,false,0.446003,-0.302246,0.583435,0.607727,0.884779,-0.435309,-0.126345,-0.045541,0.001923,0.055536
1722050313.5971,2024-07-26 20:18:33.597,23,false,0.445875,-0.302185,0.583374,0.60791,0.888197,-0.440681,-0.147341,-0.045638,0.001901,0.05539
1722050313.6284,2024-07-26 20:18:33.628,24,false,0.445871,-0.302185,0.583313,0.607971,0.87892,-0.430426,-0.134157,-0.045554,0.001931,0.055369
1722050313.6596,2024-07-26 20:18:33.659,25,false,0.445756,-0.302124,0.583496,0.60791,0.87892,-0.430426,-0.134157,-0.045601,0.001835,0.05535
1722050313.6909,2024-07-26 20:18:33.690,26,false,0.445798,-0.302185,0.583496,0.607849,0.888197,-0.428473,-0.131228,-0.045618,0.001786,0.055418
1722050313.7221,2024-07-26 20:18:33.722,27,false,0.445762,-0.302002,0.583618,0.607849,0.886244,-0.433845,-0.129763,-0.045598,0.001766,0.055357
1722050313.7534,2024-07-26 20:18:33.753,28,false,0.445839,-0.302002,0.583496,0.60791,0.886244,-0.433845,-0.129763,-0.045579,0.001748,0.055302
1722050313.7846,2024-07-26 20:18:33.784,29,false,0.445833,-0.302124,0.583374,0.607971,0.882826,-0.427985,-0.129274,-0.04566,0.001647,0.05529
1722050313.8159,2024-07-26 20:18:33.815,30,false,0.445714,-0.301941,0.583496,0.608032,0.879896,-0.433356,-0.133181,-0.045732,0.001738,0.055339
1722050313.8471,2024-07-26 20:18:33.847,31,false,0.445631,-0.301941,0.583496,0.608093,0.879896,-0.433356,-0.133181,-0.045798,0.001821,0.055384
1722050313.8784,2024-07-26 20:18:33.878,0,false,0.445833,-0.302124,0.583374,0.607971,0.880385,-0.428473,-0.13611,-0.045881,0.001834,0.055388
1722050313.9096,2024-07-26 20:18:33.909,1,false,0.445628,-0.302063,0.583435,0.608093,0.880385,-0.428473,-0.13611,-0.045932,0.00187,0.055367
1722050313.9409,2024-07-26 20:18:33.940,2,false,0.445704,-0.302063,0.583313,0.608154,0.884779,-0.426032,-0.138064,-0.045868,0.001915,0.05536
1722050313.9721,2024-07-26 20:18:33.972,3,false,0.4455,-0.302124,0.583374,0.608215,0.886244,-0.43238,-0.128786,-0.045932,0.001895,0.055232
1722050314.0034,2024-07-26 20:18:34.003,4,false,0.445502,-0.302002,0.583435,0.608215,0.886244,-0.43238,-0.128786,-0.04599,0.001876,0.055116
1722050314.0346,2024-07-26 20:18:34.034,5,false,0.445383,-0.301819,0.583557,0.608276,0.884779,-0.445075,-0.127321,-0.046005,0.001896,0.055135
1722050314.0659,2024-07-26 20:18:34.065,6,false,0.445259,-0.30188,0.583557,0.608337,0.881361,-0.444587,-0.139528,-0.045933,0.001853,0.055236
1722050314.0971,2024-07-26 20:18:34.097,7,false,0.445217,-0.301819,0.583557,0.608398,0.881361,-0.444587,-0.139528,-0.045869,0.001814,0.055328
1722050314.1284,2024-07-26 20:18:34.128,8,false,0.445213,-0.301819,0.583496,0.608459,0.892103,-0.445075,-0.130739,-0.045884,0.001828,0.055337
1722050314.1596,2024-07-26 20:18:34.159,9,false,0.445293,-0.301819,0.583435,0.608459,0.886244,-0.443122,-0.14197,-0.04591,0.001816,0.055334
1722050314.1909,2024-07-26 20:18:34.190,10,false,0.445456,-0.301697,0.583374,0.608459,0.886244,-0.443122,-0.14197,-0.045933,0.001805,0.05533
1722050314.2221,2024-07-26 20:18:34.222,11,false,0.445538,-0.301575,0.583374,0.608459,0.881849,-0.439216,-0.137087,-0.04593,0.001735,0.055266
1722050314.2534,2024-07-26 20:18:34.253,12,false,0.445457,-0.301331,0.583435,0.608582,0.879896,-0.417243,-0.121462,-0.045915,0.001781,0.055318
1722050314.2846,2024-07-26 20:18:34.284,13,false,0.445206,-0.301208,0.583435,0.608826,0.890639,-0.427985,-0.138064,-0.045852,0.001749,0.05534
1722050314.3159,2024-07-26 20:18:34.315,14,false,0.445293,-0.301208,0.583496,0.608704,0.879896,-0.425055,-0.12488,-0.045808,0.001916,0.055349
1722050314.3471,2024-07-26 20:18:34.347,15,false,0.445251,-0.301147,0.583496,0.608765,0.873549,-0.429938,-0.136599,-0.045817,0.001957,0.055368
1722050314.3784,2024-07-26 20:18:34.378,16,false,0.445087,-0.301147,0.583557,0.608826,0.873549,-0.429938,-0.136599,-0.045825,0.001993,0.055385
1722050314.4096,2024-07-26 20:18:34.409,17,false,0.445091,-0.301147,0.583618,0.608765,0.897475,-0.428962,-0.133181,-0.045784,0.001867,0.055389
1722050314.4409,2024-07-26 20:18:34.440,18,false,0.445005,-0.30127,0.583557,0.608826,0.891615,-0.451423,-0.129763,-0.045698,0.001827,0.055319
1722050314.4721,2024-07-26 20:18:34.472,19,false,0.445046,-0.301208,0.583557,0.608826,0.891615,-0.451423,-0.129763,-0.04562,0.00179,0.055256
1722050314.5034,2024-07-26 20:18:34.503,20,false,0.445046,-0.301208,0.583557,0.608826,0.876967,-0.436774,-0.126833,-0.045709,0.001758,0.055285
1722050314.5346,2024-07-26 20:18:34.534,21,false,0.445166,-0.301025,0.583496,0.608887,0.866224,-0.444099,-0.130251,-0.045753,0.001729,0.05531
1722050314.5659,2024-07-26 20:18:34.565,22,false,0.44525,-0.301025,0.583496,0.608826,0.866224,-0.444099,-0.130251,-0.045792,0.001702,0.055334
1722050314.5971,2024-07-26 20:18:34.597,23,false,0.445169,-0.300903,0.583557,0.608887,0.888197,-0.439704,-0.134646,-0.045692,0.001788,0.055379
1722050314.6284,2024-07-26 20:18:34.628,24,false,0.445175,-0.300781,0.583679,0.608826,0.872572,-0.440192,-0.137087,-0.045616,0.001817,0.055188
1722050314.6596,2024-07-26 20:18:34.659,25,false,0.44525,-0.301025,0.583496,0.608826,0.876967,-0.436774,-0.126833,-0.045705,0.001867,0.055113
1722050314.6909,2024-07-26 20:18:34.690,26,false,0.44497,-0.300842,0.58374,0.608887,0.883803,-0.442634,-0.128786,-0.045785,0.001912,0.055047
1722050314.7221,2024-07-26 20:18:34.722,27,false,0.444928,-0.300781,0.58374,0.608948,0.889662,-0.440681,-0.120974,-0.04576,0.001953,0.055096
1722050314.7534,2024-07-26 20:18:34.753,28,false,0.444997,-0.300781,0.583496,0.609131,0.875502,-0.44654,-0.132692,-0.045933,0.001868,0.055141
1722050314.7846,2024-07-26 20:18:34.784,29,false,0.444797,-0.300598,0.583679,0.609192,0.875502,-0.44654,-0.132692,-0.046088,0.001791,0.055181
1722050314.8159,2024-07-26 20:18:34.815,30,false,0.4448,-0.300476,0.58374,0.609192,0.898939,-0.435798,-0.133181,-0.046216,0.001746,0.055181
1722050314.8471,2024-07-26 20:18:34.847,31,false,0.444716,-0.300476,0.58374,0.609253,0.882338,-0.434821,-0.139528,-0.046245,0.001718,0.055156
1722050314.8784,2024-07-26 20:18:34.878,0,false,0.444755,-0.300537,0.583679,0.609253,0.882338,-0.434821,-0.139528,-0.046271,0.001693,0.055133
1722050314.9096,2024-07-26 20:18:34.909,1,false,0.444835,-0.300537,0.583618,0.609253,0.884779,-0.447517,-0.122927,-0.046222,0.001719,0.055199
1722050314.9409,2024-07-26 20:18:34.940,2,false,0.44487,-0.300598,0.583496,0.609314,0.876967,-0.448005,-0.139528,-0.0463,0.001644,0.055197
1722050314.9721,2024-07-26 20:18:34.972,3,false,0.444831,-0.300537,0.583557,0.609314,0.876967,-0.448005,-0.139528,-0.046369,0.001578,0.055195
1722050315.0034,2024-07-26 20:18:35.003,4,false,0.445037,-0.300598,0.583496,0.609192,0.887221,-0.434821,-0.140505,-0.04631,0.001554,0.055034
1722050315.0346,2024-07-26 20:18:35.034,5,false,0.445,-0.300659,0.583557,0.609131,0.881361,-0.434333,-0.138552,-0.04622,0.001557,0.055048
1722050315.0659,2024-07-26 20:18:35.065,6,false,0.444961,-0.300598,0.583618,0.609131,0.883803,-0.432868,-0.133181,-0.046237,0.001597,0.055025
1722050315.0971,2024-07-26 20:18:35.097,7,false,0.444883,-0.300476,0.58374,0.609131,0.884291,-0.441169,-0.137575,-0.046191,0.001596,0.055064
1722050315.1284,2024-07-26 20:18:35.128,8,false,0.444883,-0.300476,0.58374,0.609131,0.879408,-0.44654,-0.128786,-0.046235,0.001717,0.055075
1722050315.1596,2024-07-26 20:18:35.159,9,false,0.444843,-0.300293,0.583801,0.609192,0.879408,-0.44654,-0.128786,-0.046275,0.001826,0.055086
1722050315.1909,2024-07-26 20:18:35.190,10,false,0.444801,-0.300232,0.583801,0.609253,0.87892,-0.442145,-0.134646,-0.046115,0.001998,0.055021
1722050315.2221,2024-07-26 20:18:35.222,11,false,0.444961,-0.300232,0.583679,0.609253,0.879896,-0.436286,-0.133669,-0.045971,0.001969,0.054964
1722050315.2534,2024-07-26 20:18:35.253,12,false,0.445047,-0.30011,0.58374,0.609192,0.879896,-0.436286,-0.133669,-0.045854,0.001931,0.055009
1722050315.2846,2024-07-26 20:18:35.284,13,false,0.445002,-0.300171,0.583679,0.609253,0.879896,-0.441657,-0.146365,-0.045883,0.001969,0.055063
1722050315.3159,2024-07-26 20:18:35.315,14,false,0.445123,-0.30011,0.583618,0.609253,0.880873,-0.444587,-0.137087,-0.045873,0.002212,0.055038
1722050315.3471,2024-07-26 20:18:35.347,15,false,0.445287,-0.30011,0.583557,0.609192,0.880873,-0.444587,-0.137087,-0.045863,0.00243,0.055015
1722050315.3784,2024-07-26 20:18:35.378,16,false,0.445293,-0.299988,0.583679,0.609131,0.875013,-0.44361,-0.12195,-0.045891,0.002334,0.055104
1722050315.4096,2024-07-26 20:18:35.409,17,false,0.445337,-0.299927,0.58374,0.60907,0.876478,-0.44361,-0.135134,-0.045806,0.002235,0.055136
1722050315.4409,2024-07-26 20:18:35.440,18,false,0.445287,-0.30011,0.583557,0.609192,0.879896,-0.441657,-0.146365,-0.045877,0.002121,0.055116
1722050315.4721,2024-07-26 20:18:35.472,19,false,0.445294,-0.30011,0.583679,0.60907,0.880873,-0.445075,-0.13611,-0.04594,0.002019,0.055097
1722050315.5034,2024-07-26 20:18:35.503,20,false,0.445173,-0.300171,0.58374,0.60907,0.888685,-0.436774,-0.138064,-0.045924,0.002012,0.055105
1722050315.5346,2024-07-26 20:18:35.534,21,false,0.445055,-0.300232,0.583862,0.609009,0.880873,-0.451911,-0.133669,-0.046019,0.001896,0.055186
1722050315.5659,2024-07-26 20:18:35.565,22,false,0.445055,-0.300232,0.583862,0.609009,0.880873,-0.451911,-0.133669,-0.046105,0.001792,0.055258
1722050315.5971,2024-07-26 20:18:35.597,23,false,0.444852,-0.300171,0.583984,0.60907,0.87892,-0.447517,-0.124392,-0.046108,0.001845,0.055323
1722050315.6284,2024-07-26 20:18:35.628,24,false,0.44481,-0.30011,0.583984,0.609131,0.877455,-0.445563,-0.140993,-0.045965,0.001831,0.055382
1722050315.6596,2024-07-26 20:18:35.659,25,false,0.444768,-0.300049,0.583984,0.609192,0.877455,-0.445563,-0.140993,-0.04591,0.001746,0.055325
1722050315.6909,2024-07-26 20:18:35.690,26,false,0.44468,-0.300049,0.583923,0.609314,0.875013,-0.444099,-0.134646,-0.045933,0.001596,0.055261
1722050315.7221,2024-07-26 20:18:35.722,27,false,0.444679,-0.299927,0.583923,0.609375,0.872572,-0.44361,-0.140993,-0.046052,0.001766,0.055411
1722050315.7534,2024-07-26 20:18:35.753,28,false,0.444683,-0.299927,0.583984,0.609314,0.872572,-0.44361,-0.140993,-0.046147,0.001662,0.055388
1722050315.7846,2024-07-26 20:18:35.784,29,false,0.444723,-0.30011,0.583923,0.609253,0.872572,-0.44361,-0.140993,-0.046232,0.001569,0.055367
1722050315.8159,2024-07-26 20:18:35.815,30,false,0.444725,-0.299988,0.583984,0.609253,0.878431,-0.438239,-0.127321,-0.046308,0.001608,0.055311
1722050315.8471,2024-07-26 20:18:35.847,31,false,0.444515,-0.299927,0.583984,0.609436,0.874525,-0.429938,-0.128298,-0.046292,0.001679,0.05531
1722050315.8784,2024-07-26 20:18:35.878,0,false,0.444439,-0.299927,0.584106,0.609375,0.874525,-0.429938,-0.128298,-0.046277,0.001743,0.055309
1722050315.9096,2024-07-26 20:18:35.909,1,false,0.444397,-0.299988,0.584106,0.609375,0.871595,-0.438239,-0.126833,-0.046251,0.001788,0.055356
1722050315.9409,2024-07-26 20:18:35.940,2,false,0.444356,-0.300049,0.584106,0.609375,0.888197,-0.447028,-0.132692,-0.046204,0.001805,0.055363
1722050315.9721,2024-07-26 20:18:35.972,3,false,0.444397,-0.299988,0.584106,0.609375,0.888197,-0.447028,-0.132692,-0.046088,0.001881,0.055369
1722050316.0034,2024-07-26 20:18:36.003,4,false,0.444439,-0.299927,0.584106,0.609375,0.878431,-0.448981,-0.134646,-0.045984,0.001949,0.055411
1722050316.0346,2024-07-26 20:18:36.034,5,false,0.444478,-0.299988,0.584045,0.609375,0.876967,-0.436774,-0.122927,-0.04589,0.001949,0.055387
1722050316.0659,2024-07-26 20:18:36.065,6,false,0.44448,-0.299866,0.584106,0.609375,0.876967,-0.436774,-0.122927,-0.045805,0.00195,0.055366
1722050316.0971,2024-07-26 20:18:36.097,7,false,0.444522,-0.299927,0.584106,0.609314,0.885267,-0.443122,-0.133669,-0.045815,0.001865,0.05542
1722050316.1284,2024-07-26 20:18:36.128,8,false,0.444683,-0.299927,0.583984,0.609314,0.882338,-0.436774,-0.135622,-0.045811,0.001837,0.05542
1722050316.1596,2024-07-26 20:18:36.159,9,false,0.444561,-0.299988,0.584045,0.609314,0.882338,-0.436774,-0.135622,-0.045808,0.001812,0.05542
1722050316.1909,2024-07-26 20:18:36.190,10,false,0.444522,-0.299927,0.584106,0.609314,0.883803,-0.441657,-0.14197,-0.045865,0.00185,0.055359
1722050316.2221,2024-07-26 20:18:36.222,11,false,0.444604,-0.300049,0.584045,0.609253,0.883803,-0.441657,-0.14197,-0.045918,0.001885,0.055305
1722050316.2534,2024-07-26 20:18:36.253,12,false,0.444648,-0.299988,0.584106,0.609192,0.886244,-0.444099,-0.135622,-0.045977,0.001904,0.055304
1722050316.2846,2024-07-26 20:18:36.284,13,false,0.44473,-0.30011,0.584045,0.609131,0.875502,-0.446052,-0.11902,-0.045969,0.00186,0.055242
1722050316.3159,2024-07-26 20:18:36.315,14,false,0.444603,-0.300293,0.583984,0.609192,0.875502,-0.446052,-0.11902,-0.045962,0.001821,0.055187
1722050316.3471,2024-07-26 20:18:36.347,15,false,0.444642,-0.300354,0.583923,0.609192,0.877943,-0.442145,-0.134157,-0.045846,0.001834,0.05521
1722050316.3784,2024-07-26 20:18:36.378,16,false,0.444474,-0.300354,0.583923,0.609314,0.873549,-0.449958,-0.128298,-0.045925,0.001907,0.055268
1722050316.4096,2024-07-26 20:18:36.409,17,false,0.444599,-0.300293,0.583923,0.609253,0.873549,-0.449958,-0.128298,-0.045995,0.001912,0.05532
1722050316.4409,2024-07-26 20:18:36.440,18,false,0.4446,-0.300415,0.583923,0.609192,0.886732,-0.44361,-0.132692,-0.046059,0.001855,0.05533
1722050316.4721,2024-07-26 20:18:36.472,19,false,0.444723,-0.300476,0.583862,0.609131,0.887221,-0.452399,-0.133181,-0.045994,0.001889,0.055376
1722050316.5034,2024-07-26 20:18:36.503,20,false,0.444837,-0.300415,0.583679,0.609253,0.887221,-0.452399,-0.133181,-0.045936,0.00192,0.055417
1722050316.5346,2024-07-26 20:18:36.534,21,false,0.44488,-0.300476,0.583679,0.609192,0.895521,-0.448493,-0.134646,-0.04603,0.001874,0.055429
1722050316.5659,2024-07-26 20:18:36.565,22,false,0.444635,-0.30072,0.58374,0.609192,0.884779,-0.440681,-0.132692,-0.04598,0.001919,0.055477
1722050316.5971,2024-07-26 20:18:36.597,23,false,0.444553,-0.300598,0.583801,0.609253,0.889662,-0.430426,-0.131228,-0.045923,0.0018,0.055386
1722050316.6284,2024-07-26 20:18:36.628,24,false,0.444383,-0.300598,0.58374,0.609436,0.876967,-0.434821,-0.129763,-0.045762,0.001791,0.055402
1722050316.6596,2024-07-26 20:18:36.659,25,false,0.444299,-0.300598,0.58374,0.609497,0.881361,-0.445563,-0.127321,-0.045776,0.001758,0.055331
1722050316.6909,2024-07-26 20:18:36.690,26,false,0.444344,-0.300537,0.583801,0.609436,0.881361,-0.445563,-0.127321,-0.045788,0.001729,0.055266
1722050316.7221,2024-07-26 20:18:36.722,27,false,0.444428,-0.300659,0.583801,0.609314,0.887221,-0.434333,-0.131716,-0.045787,0.001751,0.055221
1722050316.7534,2024-07-26 20:18:36.753,28,false,0.444227,-0.30072,0.583923,0.609314,0.887709,-0.440192,-0.130739,-0.045871,0.001772,0.05518
1722050316.7846,2024-07-26 20:18:36.784,29,false,0.444144,-0.300842,0.583923,0.609314,0.887709,-0.440192,-0.130739,-0.045947,0.00179,0.055143
1722050316.8159,2024-07-26 20:18:36.815,30,false,0.444016,-0.301025,0.583862,0.609375,0.881361,-0.431403,-0.134157,-0.046052,0.001831,0.055146
1722050316.8471,2024-07-26 20:18:36.847,31,false,0.443975,-0.301086,0.583862,0.609375,0.871107,-0.435798,-0.130739,-0.045939,0.001916,0.055076
1722050316.8784,2024-07-26 20:18:36.878,0,false,0.443938,-0.30127,0.583923,0.609253,0.871107,-0.435798,-0.130739,-0.045838,0.001993,0.055013
1722050316.9096,2024-07-26 20:18:36.909,1,false,0.444021,-0.30127,0.583923,0.609192,0.884779,-0.42945,-0.141482,-0.045856,0.002013,0.055029
1722050316.9409,2024-07-26 20:18:36.940,2,false,0.444064,-0.301331,0.583923,0.609131,0.87892,-0.431403,-0.147829,-0.045934,0.002007,0.055129
1722050316.9721,2024-07-26 20:18:36.972,3,false,0.443938,-0.30127,0.583923,0.609253,0.881361,-0.431403,-0.134157,-0.045894,0.002014,0.055146
1722050317.0034,2024-07-26 20:18:37.003,4,false,0.44419,-0.301392,0.583923,0.609009,0.871595,-0.436774,-0.129274,-0.045858,0.00202,0.055162
1722050317.0346,2024-07-26 20:18:37.034,5,false,0.444114,-0.301514,0.584045,0.608887,0.880873,-0.431891,-0.127321,-0.045776,0.001977,0.055163
1722050317.0659,2024-07-26 20:18:37.065,6,false,0.444156,-0.301575,0.584045,0.608826,0.884291,-0.426032,-0.135134,-0.045776,0.001975,0.055128
1722050317.0971,2024-07-26 20:18:37.097,7,false,0.444275,-0.301636,0.583923,0.608826,0.884291,-0.426032,-0.135134,-0.045776,0.001972,0.055096
1722050317.1284,2024-07-26 20:18:37.128,8,false,0.444186,-0.301758,0.583801,0.608948,0.885267,-0.445075,-0.131716,-0.045679,0.002032,0.055275
1722050317.1596,2024-07-26 20:18:37.159,9,false,0.44414,-0.301697,0.58374,0.60907,0.874037,-0.451423,-0.131716,-0.045689,0.001987,0.055229
1722050317.1909,2024-07-26 20:18:37.190,10,false,0.444181,-0.301636,0.58374,0.60907,0.874037,-0.451423,-0.131716,-0.045697,0.001947,0.055187
1722050317.2221,2024-07-26 20:18:37.222,11,false,0.444259,-0.301758,0.583618,0.60907,0.888197,-0.449958,-0.13611,-0.045766,0.001948,0.055296
1722050317.2534,2024-07-26 20:18:37.253,12,false,0.444458,-0.301819,0.583435,0.60907,0.877455,-0.436774,-0.125856,-0.045743,0.001924,0.055296
1722050317.2846,2024-07-26 20:18:37.284,13,false,0.444539,-0.301941,0.583374,0.609009,0.877455,-0.436774,-0.125856,-0.045661,0.001963,0.055321
1722050317.3159,2024-07-26 20:18:37.315,14,false,0.444619,-0.301941,0.583313,0.609009,0.875502,-0.436774,-0.12195,-0.045648,0.001975,0.055404
1722050317.3471,2024-07-26 20:18:37.347,15,false,0.444701,-0.302307,0.583252,0.608826,0.883803,-0.427008,-0.130739,-0.045698,0.001985,0.055271
1722050317.3784,2024-07-26 20:18:37.378,16,false,0.4447,-0.302185,0.583252,0.608887,0.883314,-0.427008,-0.14197,-0.045742,0.001994,0.055274
1722050317.4096,2024-07-26 20:18:37.409,17,false,0.444655,-0.302124,0.583191,0.609009,0.874525,-0.433845,-0.12781,-0.045721,0.002026,0.055301
1722050317.4409,2024-07-26 20:18:37.440,18,false,0.444699,-0.301941,0.583252,0.609009,0.886732,-0.439216,-0.132204,-0.045751,0.002019,0.055398
1722050317.4721,2024-07-26 20:18:37.472,19,false,0.444699,-0.301941,0.583252,0.609009,0.886732,-0.439216,-0.132204,-0.045815,0.001951,0.05534
1722050317.5034,2024-07-26 20:18:37.503,20,false,0.44474,-0.30188,0.583252,0.609009,0.894545,-0.435798,-0.132692,-0.045884,0.001927,0.055274
1722050317.5346,2024-07-26 20:18:37.534,21,false,0.444775,-0.301941,0.58313,0.60907,0.879408,-0.440681,-0.125368,-0.045959,0.002015,0.055228
1722050317.5659,2024-07-26 20:18:37.565,22,false,0.444738,-0.302002,0.583191,0.609009,0.879408,-0.440681,-0.125368,-0.045965,0.002009,0.055186
1722050317.5971,2024-07-26 20:18:37.597,23,false,0.444777,-0.302185,0.58313,0.608948,0.880873,-0.425544,-0.142458,-0.045947,0.002003,0.055149
1722050317.6284,2024-07-26 20:18:37.628,24,false,0.445017,-0.302307,0.582947,0.608887,0.885267,-0.445563,-0.131228,-0.045942,0.001913,0.055127
1722050317.6596,2024-07-26 20:18:37.659,25,false,0.44514,-0.30249,0.582886,0.608765,0.885267,-0.445563,-0.131228,-0.04595,0.001941,0.055217
1722050317.6909,2024-07-26 20:18:37.690,26,false,0.44514,-0.302612,0.582886,0.608704,0.886732,-0.437751,-0.141482,-0.045969,0.002016,0.055433
1722050317.7221,2024-07-26 20:18:37.722,27,false,0.445017,-0.302307,0.582947,0.608887,0.886732,-0.437751,-0.141482,-0.045986,0.002083,0.055627
1722050317.7534,2024-07-26 20:18:37.753,28,false,0.445137,-0.302612,0.582825,0.608765,0.875013,-0.434821,-0.134646,-0.045966,0.00207,0.055607
1722050317.7846,2024-07-26 20:18:37.784,29,false,0.445262,-0.302673,0.582825,0.608643,0.881849,-0.434821,-0.128298,-0.045947,0.002022,0.055527
1722050317.8159,2024-07-26 20:18:37.815,30,false,0.445224,-0.302734,0.582886,0.608582,0.881849,-0.434821,-0.128298,-0.045795,0.0021,0.055516
1722050317.8471,2024-07-26 20:18:37.847,31,false,0.445305,-0.302979,0.582825,0.608459,0.89015,-0.427008,-0.12781,-0.045977,0.002024,0.055482
1722050317.8784,2024-07-26 20:18:37.878,0,false,0.445305,-0.302979,0.582825,0.608459,0.883314,-0.424079,-0.122438,-0.045957,0.002042,0.055537
1722050317.9096,2024-07-26 20:18:37.909,1,false,0.445145,-0.302856,0.582947,0.608521,0.883314,-0.424079,-0.122438,-0.045963,0.002057,0.055526
1722050317.9409,2024-07-26 20:18:37.940,2,false,0.445193,-0.302673,0.583069,0.608459,0.887221,-0.431891,-0.129763,-0.045847,0.00201,0.055491
1722050317.9721,2024-07-26 20:18:37.972,3,false,0.445193,-0.302673,0.583069,0.608459,0.889174,-0.438239,-0.140993,-0.04584,0.002005,0.055459
1722050318.0034,2024-07-26 20:18:38.003,4,false,0.445391,-0.302734,0.582886,0.608459,0.889174,-0.438239,-0.140993,-0.045834,0.001999,0.055431
1722050318.0346,2024-07-26 20:18:38.034,5,false,0.445312,-0.302856,0.582947,0.608398,0.885267,-0.447517,-0.132692,-0.045804,0.002031,0.055442
1722050318.0659,2024-07-26 20:18:38.065,6,false,0.445513,-0.302917,0.582825,0.608337,0.884291,-0.43238,-0.134646,-0.045764,0.002048,0.055501
1722050318.0971,2024-07-26 20:18:38.097,7,false,0.445601,-0.303284,0.582886,0.608032,0.884291,-0.43238,-0.134646,-0.045729,0.002063,0.055554
1722050318.1284,2024-07-26 20:18:38.128,8,false,0.445563,-0.303345,0.582947,0.607971,0.884291,-0.43238,-0.134646,-0.045697,0.002052,0.055455
1722050318.1596,2024-07-26 20:18:38.159,9,false,0.445351,-0.303406,0.582886,0.608154,0.885756,-0.42945,-0.128298,-0.045827,0.002042,0.055598
1722050318.1909,2024-07-26 20:18:38.190,10,false,0.445264,-0.303406,0.582825,0.608276,0.892592,-0.428473,-0.134646,-0.045822,0.002155,0.055556
1722050318.2221,2024-07-26 20:18:38.222,11,false,0.445344,-0.303406,0.582764,0.608276,0.892592,-0.428473,-0.134646,-0.045854,0.002086,0.055591
1722050318.2534,2024-07-26 20:18:38.253,12,false,0.445303,-0.303589,0.582764,0.608215,0.89015,-0.437263,-0.12781,-0.045883,0.001987,0.055623
1722050318.2846,2024-07-26 20:18:38.284,13,false,0.445348,-0.303528,0.582825,0.608154,0.884779,-0.429938,-0.125368,-0.045836,0.002106,0.055664
1722050318.3159,2024-07-26 20:18:38.315,14,false,0.445421,-0.303528,0.582642,0.608276,0.884779,-0.429938,-0.125368,-0.045793,0.002213,0.055701
1722050318.3471,2024-07-26 20:18:38.347,15,false,0.445414,-0.30365,0.58252,0.608337,0.889662,-0.437751,-0.139528,-0.045767,0.002224,0.055722
1722050318.3784,2024-07-26 20:18:38.378,16,false,0.445535,-0.303711,0.582458,0.608276,0.886732,-0.428473,-0.14197,-0.045671,0.002196,0.055691
1722050318.4096,2024-07-26 20:18:38.409,17,false,0.44566,-0.303772,0.582458,0.608154,0.886732,-0.428473,-0.14197,-0.045571,0.00227,0.055652
1722050318.4409,2024-07-26 20:18:38.440,18,false,0.44583,-0.30365,0.58252,0.608032,0.882338,-0.417731,-0.129274,-0.045507,0.002189,0.055617
1722050318.4721,2024-07-26 20:18:38.472,19,false,0.445789,-0.303589,0.58252,0.608093,0.890639,-0.433845,-0.138552,-0.045558,0.002044,0.055597
1722050318.5034,2024-07-26 20:18:38.503,20,false,0.44566,-0.303772,0.582458,0.608154,0.889662,-0.437751,-0.139528,-0.045495,0.002071,0.055567
1722050318.5346,2024-07-26 20:18:38.534,21,false,0.445754,-0.303406,0.582642,0.608093,0.878431,-0.440681,-0.140017,-0.045413,0.002035,0.055541
1722050318.5659,2024-07-26 20:18:38.565,22,false,0.445885,-0.303345,0.582764,0.60791,0.889174,-0.443122,-0.132204,-0.045413,0.002088,0.055468
1722050318.5971,2024-07-26 20:18:38.597,23,false,0.445885,-0.303345,0.582764,0.60791,0.887221,-0.433845,-0.132204,-0.045461,0.002148,0.055414
1722050318.6284,2024-07-26 20:18:38.628,24,false,0.445795,-0.303345,0.582642,0.608093,0.887221,-0.433845,-0.132204,-0.045505,0.002201,0.055366
1722050318.6596,2024-07-26 20:18:38.659,25,false,0.445712,-0.303345,0.582642,0.608154,0.888197,-0.426032,-0.134646,-0.045459,0.002079,0.055408
1722050318.6909,2024-07-26 20:18:38.690,26,false,0.445715,-0.303223,0.582703,0.608154,0.884291,-0.428473,-0.12781,-0.045515,0.002005,0.055409
1722050318.7221,2024-07-26 20:18:38.722,27,false,0.445559,-0.303223,0.582886,0.608093,0.884291,-0.428473,-0.12781,-0.045566,0.001939,0.05541
1722050318.7534,2024-07-26 20:18:38.753,28,false,0.445392,-0.303223,0.582886,0.608215,0.881849,-0.439216,-0.130739,-0.045624,0.001977,0.055399
1722050318.7846,2024-07-26 20:18:38.784,29,false,0.445351,-0.303284,0.582886,0.608215,0.896986,-0.437751,-0.135134,-0.045639,0.00206,0.055401
1722050318.8159,2024-07-26 20:18:38.815,30,false,0.445309,-0.303223,0.582886,0.608276,0.896986,-0.437751,-0.135134,-0.045653,0.002135,0.055403
1722050318.8471,2024-07-26 20:18:38.847,31,false,0.445153,-0.303223,0.583069,0.608215,0.883803,-0.439216,-0.126345,-0.045702,0.002031,0.055356
1722050318.8784,2024-07-26 20:18:38.878,0,false,0.445031,-0.303162,0.58313,0.608276,0.879896,-0.428962,-0.138552,-0.045722,0.002036,0.055314
1722050318.9096,2024-07-26 20:18:38.909,1,false,0.444947,-0.302917,0.58313,0.608459,0.884291,-0.43238,-0.137087,-0.045703,0.00204,0.055312
1722050318.9409,2024-07-26 20:18:38.940,2,false,0.444696,-0.302795,0.58313,0.608704,0.882826,-0.437263,-0.140505,-0.045674,0.002031,0.055201
1722050318.9721,2024-07-26 20:18:38.972,3,false,0.444866,-0.302673,0.583191,0.608582,0.893568,-0.429938,-0.123415,-0.045794,0.001974,0.055211
1722050319.0034,2024-07-26 20:18:39.003,4,false,0.44474,-0.302612,0.583191,0.608704,0.893568,-0.429938,-0.123415,-0.045987,0.001887,0.055244
1722050319.0346,2024-07-26 20:18:39.034,5,false,0.444782,-0.302551,0.583191,0.608704,0.875502,-0.439216,-0.134157,-0.045966,0.001796,0.055323
1722050319.0659,2024-07-26 20:18:39.065,6,false,0.444781,-0.302429,0.583191,0.608765,0.888197,-0.448981,-0.130739,-0.04585,0.001775,0.055308
1722050319.0971,2024-07-26 20:18:39.097,7,false,0.444774,-0.302429,0.583069,0.608887,0.888197,-0.448981,-0.130739,-0.045745,0.001756,0.055295
1722050319.1284,2024-07-26 20:18:39.128,8,false,0.444934,-0.302429,0.582947,0.608887,0.881361,-0.44654,-0.129763,-0.045675,0.001776,0.055308
1722050319.1596,2024-07-26 20:18:39.159,9,false,0.444889,-0.30249,0.582886,0.608948,0.877943,-0.434333,-0.140993,-0.045746,0.001818,0.055294
1722050319.1909,2024-07-26 20:18:39.190,10,false,0.444927,-0.302429,0.582825,0.609009,0.877943,-0.434333,-0.140993,-0.045713,0.001893,0.055222
1722050319.2221,2024-07-26 20:18:39.222,11,false,0.445132,-0.302246,0.582764,0.609009,0.888197,-0.450935,-0.134646,-0.045719,0.001838,0.055242
1722050319.2534,2024-07-26 20:18:39.253,12,false,0.444889,-0.30249,0.582886,0.608948,0.888197,-0.450935,-0.134646,-0.045725,0.001788,0.055259
1722050319.2846,2024-07-26 20:18:39.284,13,false,0.445055,-0.302124,0.582886,0.609009,0.87306,-0.440681,-0.130251,-0.045742,0.00178,0.055141
1722050319.3159,2024-07-26 20:18:39.315,14,false,0.445057,-0.30188,0.582947,0.60907,0.873549,-0.436286,-0.133181,-0.045746,0.0017,0.055145
1722050319.3471,2024-07-26 20:18:39.347,15,false,0.44497,-0.302002,0.582886,0.609131,0.873549,-0.436286,-0.133181,-0.045822,0.00164,0.05516
1722050319.3784,2024-07-26 20:18:39.378,16,false,0.445008,-0.301941,0.582825,0.609192,0.885267,-0.441169,-0.137087,-0.045793,0.001708,0.055174
1722050319.4096,2024-07-26 20:18:39.409,17,false,0.444966,-0.30188,0.582825,0.609253,0.885267,-0.435309,-0.142947,-0.045804,0.001683,0.055211
1722050319.4409,2024-07-26 20:18:39.440,18,false,0.444719,-0.30188,0.582886,0.609375,0.885267,-0.435309,-0.142947,-0.045813,0.001662,0.055244
1722050319.4721,2024-07-26 20:18:39.472,19,false,0.444638,-0.301758,0.582947,0.609436,0.883314,-0.427985,-0.125368,-0.045736,0.001691,0.055262
1722050319.5034,2024-07-26 20:18:39.503,20,false,0.444555,-0.30188,0.582947,0.609436,0.880873,-0.438727,-0.132692,-0.045704,0.00168,0.055253
1722050319.5346,2024-07-26 20:18:39.534,21,false,0.444471,-0.301758,0.582947,0.609558,0.880873,-0.438727,-0.132692,-0.045675,0.001671,0.055246
1722050319.5659,2024-07-26 20:18:39.565,22,false,0.444432,-0.301697,0.583008,0.609558,0.892103,-0.431403,-0.126833,-0.04577,0.001724,0.0553
1722050319.5971,2024-07-26 20:18:39.597,23,false,0.444474,-0.301636,0.583008,0.609558,0.866224,-0.455817,-0.13904,-0.045795,0.001624,0.055287
1722050319.6284,2024-07-26 20:18:39.628,24,false,0.444359,-0.301697,0.583191,0.609436,0.866224,-0.455817,-0.13904,-0.045745,0.001694,0.055374
1722050319.6596,2024-07-26 20:18:39.659,25,false,0.444321,-0.301636,0.583252,0.609436,0.866224,-0.455817,-0.13904,-0.045699,0.001757,0.055452
1722050319.6909,2024-07-26 20:18:39.690,26,false,0.444191,-0.301575,0.583191,0.609619,0.880385,-0.438727,-0.138064,-0.045683,0.001849,0.0554
1722050319.7221,2024-07-26 20:18:39.722,27,false,0.443985,-0.301636,0.583252,0.60968,0.896498,-0.439216,-0.126345,-0.045777,0.00186,0.055463
1722050319.7534,2024-07-26 20:18:39.753,28,false,0.444076,-0.301514,0.583374,0.609558,0.896498,-0.439216,-0.126345,-0.045863,0.001869,0.05552
1722050319.7846,2024-07-26 20:18:39.784,29,false,0.444156,-0.301514,0.583313,0.609558,0.868666,-0.433356,-0.126833,-0.045891,0.00189,0.055461
1722050319.8159,2024-07-26 20:18:39.815,30,false,0.444354,-0.301453,0.58313,0.609619,0.885267,-0.448493,-0.131716,-0.045806,0.001957,0.055433
1722050319.8471,2024-07-26 20:18:39.847,31,false,0.444311,-0.30127,0.58313,0.609741,0.885267,-0.448493,-0.131716,-0.04573,0.002018,0.055407
1722050319.8784,2024-07-26 20:18:39.878,0,false,0.444272,-0.301208,0.583191,0.609741,0.876967,-0.427497,-0.129274,-0.045857,0.001914,0.055286
1722050319.9096,2024-07-26 20:18:39.909,1,false,0.444478,-0.30127,0.58313,0.609619,0.875013,-0.437751,-0.135622,-0.045959,0.001869,0.055141
1722050319.9409,2024-07-26 20:18:39.940,2,false,0.444564,-0.301147,0.583191,0.609558,0.875013,-0.437751,-0.135622,-0.045904,0.001841,0.055291
1722050319.9721,2024-07-26 20:18:39.972,3,false,0.444602,-0.301086,0.58313,0.609619,0.885267,-0.441169,-0.135134,-0.046001,0.001827,0.055255
1722050320.0034,2024-07-26 20:18:40.003,4,false,0.444606,-0.301086,0.583191,0.609558,0.880385,-0.448493,-0.126833,-0.046015,0.001791,0.055321
1722050320.0346,2024-07-26 20:18:40.034,5,false,0.444564,-0.301147,0.583191,0.609558,0.876967,-0.427497,-0.129274,-0.046016,0.001771,0.055331
1722050320.0659,2024-07-26 20:18:40.065,6,false,0.444606,-0.301086,0.583191,0.609558,0.879408,-0.437751,-0.139528,-0.046016,0.001752,0.05534
1722050320.0971,2024-07-26 20:18:40.097,7,false,0.444687,-0.301208,0.58313,0.609497,0.879896,-0.438239,-0.132204,-0.045956,0.001895,0.055287
1722050320.1284,2024-07-26 20:18:40.128,8,false,0.44452,-0.301331,0.58313,0.609558,0.881849,-0.438239,-0.145388,-0.04595,0.001913,0.055288
1722050320.1596,2024-07-26 20:18:40.159,9,false,0.444516,-0.301208,0.583069,0.60968,0.881849,-0.438239,-0.145388,-0.04575,0.001929,0.05535
1722050320.1909,2024-07-26 20:18:40.190,10,false,0.444515,-0.301086,0.583069,0.609741,0.879896,-0.454353,-0.145388,-0.045789,0.002005,0.055284
1722050320.2221,2024-07-26 20:18:40.222,11,false,0.444515,-0.301086,0.583069,0.609741,0.87892,-0.452888,-0.135622,-0.045825,0.002073,0.055249
1722050320.2534,2024-07-26 20:18:40.253,12,false,0.444515,-0.301086,0.583069,0.609741,0.87892,-0.452888,-0.135622,-0.04582,0.002061,0.055327
1722050320.2846,2024-07-26 20:18:40.284,13,false,0.444313,-0.301147,0.583191,0.609741,0.884779,-0.444587,-0.131716,-0.045938,0.001989,0.055336
1722050320.3159,2024-07-26 20:18:40.315,14,false,0.444351,-0.301086,0.58313,0.609802,0.887709,-0.442145,-0.135622,-0.045934,0.001961,0.055272
1722050320.3471,2024-07-26 20:18:40.347,15,false,0.44439,-0.301147,0.583069,0.609802,0.887709,-0.442145,-0.135622,-0.045918,0.001924,0.055225
1722050320.3784,2024-07-26 20:18:40.378,16,false,0.444353,-0.301331,0.58313,0.60968,0.875013,-0.434821,-0.128786,-0.045941,0.001939,0.055111
1722050320.4096,2024-07-26 20:18:40.409,17,false,0.444021,-0.301697,0.58313,0.609741,0.883803,-0.438239,-0.129274,-0.04601,0.00194,0.055142
1722050320.4409,2024-07-26 20:18:40.440,18,false,0.444052,-0.301758,0.582947,0.609863,0.872084,-0.427497,-0.14197,-0.045999,0.001954,0.055157
1722050320.4721,2024-07-26 20:18:40.472,19,false,0.444131,-0.301636,0.582886,0.609924,0.879896,-0.445075,-0.130251,-0.045952,0.001929,0.055135
1722050320.5034,2024-07-26 20:18:40.503,20,false,0.444127,-0.301636,0.582825,0.609985,0.879896,-0.44361,-0.136599,-0.045947,0.001907,0.055115
1722050320.5346,2024-07-26 20:18:40.534,21,false,0.444169,-0.301575,0.582825,0.609985,0.879896,-0.44361,-0.136599,-0.045942,0.001887,0.055096
1722050320.5659,2024-07-26 20:18:40.565,22,false,0.44429,-0.301514,0.582764,0.609985,0.883803,-0.436774,-0.131228,-0.045889,0.001955,0.055104
1722050320.5971,2024-07-26 20:18:40.597,23,false,0.444371,-0.301636,0.582703,0.609924,0.882338,-0.449958,-0.132204,-0.045951,0.001845,0.055087
1722050320.6284,2024-07-26 20:18:40.628,24,false,0.444375,-0.301636,0.582764,0.609863,0.882338,-0.449958,-0.132204,-0.045934,0.00188,0.055157
1722050320.6596,2024-07-26 20:18:40.659,25,false,0.444494,-0.301697,0.582642,0.609863,0.866224,-0.442634,-0.129763,-0.045894,0.001985,0.055135
1722050320.6909,2024-07-26 20:18:40.690,26,false,0.444494,-0.301697,0.582642,0.609863,0.884291,-0.434821,-0.132204,-0.046004,0.001945,0.055249
1722050320.7221,2024-07-26 20:18:40.722,27,false,0.444497,-0.301697,0.582703,0.609802,0.884291,-0.434821,-0.132204,-0.046103,0.001909,0.055351
1722050320.7534,2024-07-26 20:18:40.753,28,false,0.44462,-0.301758,0.582642,0.609741,0.898451,-0.436286,-0.134646,-0.046046,0.001767,0.05531
1722050320.7846,2024-07-26 20:18:40.784,29,false,0.444414,-0.301697,0.582703,0.609863,0.879408,-0.445563,-0.136599,-0.046141,0.001786,0.05526
1722050320.8159,2024-07-26 20:18:40.815,30,false,0.444497,-0.301697,0.582703,0.609802,0.866224,-0.442634,-0.129763,-0.046215,0.001815,0.055117
1722050320.8471,2024-07-26 20:18:40.847,31,false,0.444456,-0.301758,0.582703,0.609802,0.883803,-0.425544,-0.151736,-0.046281,0.001841,0.054989
1722050320.8784,2024-07-26 20:18:40.878,0,false,0.444335,-0.301941,0.582764,0.609741,0.888197,-0.445075,-0.141482,-0.046243,0.001864,0.054959
1722050320.9096,2024-07-26 20:18:40.909,1,false,0.444293,-0.30188,0.582764,0.609802,0.882338,-0.428473,-0.134157,-0.046123,0.001837,0.054919
1722050320.9409,2024-07-26 20:18:40.940,2,false,0.444209,-0.30188,0.582764,0.609863,0.882338,-0.428473,-0.134157,-0.046015,0.001812,0.054884
1722050320.9721,2024-07-26 20:18:40.972,3,false,0.444087,-0.301819,0.582825,0.609924,0.876478,-0.448005,-0.13904,-0.045955,0.001826,0.054974
1722050321.0034,2024-07-26 20:18:41.003,4,false,0.444048,-0.301758,0.582886,0.609924,0.874525,-0.454841,-0.138552,-0.045949,0.001936,0.055068
1722050321.0346,2024-07-26 20:18:41.034,5,false,0.444007,-0.301819,0.582886,0.609924,0.874525,-0.454841,-0.138552,-0.045944,0.002036,0.055152
1722050321.0659,2024-07-26 20:18:41.065,6,false,0.444091,-0.301819,0.582886,0.609863,0.877943,-0.444587,-0.133669,-0.045964,0.002003,0.055167
1722050321.0971,2024-07-26 20:18:41.097,7,false,0.444052,-0.301758,0.582947,0.609863,0.87892,-0.437263,-0.134646,-0.045958,0.001912,0.055119
1722050321.1284,2024-07-26 20:18:41.128,8,false,0.444212,-0.301758,0.582825,0.609863,0.87892,-0.437263,-0.134646,-0.045854,0.001868,0.055137
1722050321.1596,2024-07-26 20:18:41.159,9,false,0.444096,-0.302063,0.582947,0.60968,0.87892,-0.437263,-0.134646,-0.045761,0.001827,0.055153
1722050321.1909,2024-07-26 20:18:41.190,10,false,0.443966,-0.302002,0.582886,0.609863,0.879408,-0.44654,-0.137575,-0.045689,0.00184,0.055216
1722050321.2221,2024-07-26 20:18:41.222,11,false,0.443878,-0.302002,0.582825,0.609985,0.881849,-0.444099,-0.133181,-0.045857,0.00179,0.055212
1722050321.2534,2024-07-26 20:18:41.253,12,false,0.443797,-0.30188,0.582886,0.610046,0.881849,-0.444099,-0.133181,-0.046007,0.001746,0.055209
1722050321.2846,2024-07-26 20:18:41.284,13,false,0.443839,-0.301819,0.582886,0.610046,0.869642,-0.440192,-0.13611,-0.046021,0.001778,0.055242
1722050321.3159,2024-07-26 20:18:41.315,14,false,0.444007,-0.301819,0.582886,0.609924,0.884779,-0.453376,-0.128298,-0.045948,0.001772,0.055309
1722050321.3471,2024-07-26 20:18:41.347,15,false,0.444292,-0.301758,0.582764,0.609863,0.884779,-0.453376,-0.128298,-0.045943,0.001826,0.055308
1722050321.3784,2024-07-26 20:18:41.378,16,false,0.444247,-0.301819,0.582703,0.609924,0.87892,-0.428962,-0.133181,-0.045926,0.001863,0.055319
1722050321.4096,2024-07-26 20:18:41.409,17,false,0.44416,-0.301941,0.582642,0.609985,0.882826,-0.436286,-0.138552,-0.045863,0.001909,0.055439
1722050321.4409,2024-07-26 20:18:41.440,18,false,0.444161,-0.302063,0.582642,0.609924,0.882826,-0.436286,-0.138552,-0.045854,0.001974,0.055437
1722050321.4721,2024-07-26 20:18:41.472,19,false,0.444042,-0.302002,0.582764,0.609924,0.883314,-0.433845,-0.12195,-0.045859,0.001924,0.055424
1722050321.5034,2024-07-26 20:18:41.503,20,false,0.444078,-0.302185,0.582642,0.609924,0.885267,-0.443122,-0.144411,-0.045875,0.002049,0.055509
1722050321.5346,2024-07-26 20:18:41.534,21,false,0.444074,-0.302185,0.582581,0.609985,0.885267,-0.443122,-0.144411,-0.045926,0.002039,0.0555
1722050321.5659,2024-07-26 20:18:41.565,22,false,0.444042,-0.302002,0.582764,0.609924,0.876478,-0.445075,-0.12781,-0.045936,0.00203,0.055468
1722050321.5971,2024-07-26 20:18:41.597,23,false,0.443908,-0.301819,0.582642,0.610229,0.876478,-0.445075,-0.12781,-0.045944,0.001962,0.0555
1722050321.6284,2024-07-26 20:18:41.628,24,false,0.443825,-0.301941,0.582642,0.610229,0.881849,-0.442145,-0.134157,-0.04594,0.001875,0.05554
1722050321.6596,2024-07-26 20:18:41.659,25,false,0.443664,-0.301941,0.582764,0.610229,0.874037,-0.42945,-0.127321,-0.045936,0.00192,0.055516
1722050321.6909,2024-07-26 20:18:41.690,26,false,0.443751,-0.301819,0.582825,0.610168,0.874037,-0.42945,-0.127321,-0.045932,0.00196,0.055495
1722050321.7221,2024-07-26 20:18:41.722,27,false,0.443709,-0.301758,0.582825,0.610229,0.872572,-0.436286,-0.11902,-0.045953,0.001996,0.055389
1722050321.7534,2024-07-26 20:18:41.753,28,false,0.443461,-0.301758,0.582886,0.610352,0.87013,-0.438727,-0.144411,-0.045997,0.002016,0.055307
1722050321.7846,2024-07-26 20:18:41.784,29,false,0.443376,-0.301636,0.582886,0.610474,0.87013,-0.438727,-0.144411,-0.046036,0.002034,0.055233
1722050321.8159,2024-07-26 20:18:41.815,30,false,0.443369,-0.301758,0.582764,0.610535,0.883803,-0.441657,-0.135134,-0.046034,0.001965,0.055191
1722050321.8471,2024-07-26 20:18:41.847,31,false,0.443418,-0.301697,0.582886,0.610413,0.880873,-0.442634,-0.142947,-0.04596,0.001939,0.055202
1722050321.8784,2024-07-26 20:18:41.878,0,false,0.443502,-0.301697,0.582886,0.610352,0.880873,-0.442634,-0.142947,-0.045966,0.001941,0.055162
1722050321.9096,2024-07-26 20:18:41.909,1,false,0.44367,-0.301697,0.582886,0.610229,0.879896,-0.444587,-0.129763,-0.04591,0.001881,0.055225
1722050321.9409,2024-07-26 20:18:41.940,2,false,0.443966,-0.302002,0.582886,0.609863,0.886732,-0.428473,-0.140017,-0.045958,0.001949,0.05533
1722050321.9721,2024-07-26 20:18:41.972,3,false,0.443885,-0.30188,0.582947,0.609924,0.877943,-0.428962,-0.133181,-0.046001,0.001974,0.055315
1722050322.0034,2024-07-26 20:18:42.003,4,false,0.443681,-0.301697,0.583069,0.610046,0.868177,-0.456794,-0.13904,-0.046003,0.001972,0.055362
1722050322.0346,2024-07-26 20:18:42.034,5,false,0.44352,-0.301575,0.583191,0.610107,0.875502,-0.435798,-0.118532,-0.046017,0.001946,0.055319
1722050322.0659,2024-07-26 20:18:42.065,6,false,0.443478,-0.301636,0.583191,0.610107,0.875502,-0.435798,-0.118532,-0.04603,0.001922,0.05528
1722050322.0971,2024-07-26 20:18:42.097,7,false,0.443562,-0.301636,0.583191,0.610046,0.878431,-0.447028,-0.141482,-0.046041,0.001998,0.055246
1722050322.1284,2024-07-26 20:18:42.128,8,false,0.443478,-0.301636,0.583191,0.610107,0.884779,-0.442145,-0.148318,-0.04599,0.002067,0.055312
1722050322.1596,2024-07-26 20:18:42.159,9,false,0.443475,-0.301636,0.58313,0.610168,0.884779,-0.442145,-0.148318,-0.045969,0.001934,0.055384
1722050322.1909,2024-07-26 20:18:42.190,10,false,0.443472,-0.301758,0.583069,0.610168,0.883803,-0.455329,-0.131716,-0.045913,0.001874,0.055302
1722050322.2221,2024-07-26 20:18:42.222,11,false,0.443472,-0.301758,0.583069,0.610168,0.869642,-0.441657,-0.129274,-0.04579,0.001834,0.055265
1722050322.2534,2024-07-26 20:18:42.253,12,false,0.443478,-0.301636,0.583191,0.610107,0.869642,-0.441657,-0.129274,-0.045678,0.001797,0.055232
1722050322.2846,2024-07-26 20:18:42.284,13,false,0.443391,-0.301636,0.58313,0.610229,0.874525,-0.436286,-0.128298,-0.045603,0.001763,0.055263
1722050322.3159,2024-07-26 20:18:42.315,14,false,0.443556,-0.301758,0.583069,0.610107,0.881361,-0.444587,-0.129763,-0.045523,0.001685,0.055279
1722050322.3471,2024-07-26 20:18:42.347,15,false,0.443478,-0.301636,0.583191,0.610107,0.883803,-0.455329,-0.131716,-0.045463,0.001663,0.055342
1722050322.3784,2024-07-26 20:18:42.378,16,false,0.443469,-0.30188,0.583008,0.610168,0.882826,-0.438239,-0.131716,-0.045409,0.001643,0.055398
1722050322.4096,2024-07-26 20:18:42.409,17,false,0.443385,-0.30188,0.583008,0.610229,0.891615,-0.429938,-0.127321,-0.045421,0.00165,0.055327
1722050322.4409,2024-07-26 20:18:42.440,18,false,0.443351,-0.301941,0.58313,0.610107,0.877943,-0.44361,-0.13904,-0.045469,0.001631,0.055264
1722050322.4721,2024-07-26 20:18:42.472,19,false,0.443389,-0.30188,0.583069,0.610168,0.877943,-0.44361,-0.13904,-0.045512,0.001615,0.055206
1722050322.5034,2024-07-26 20:18:42.503,20,false,0.443269,-0.301697,0.583191,0.610229,0.87892,-0.447517,-0.1449,-0.045502,0.001648,0.055289
1722050322.5346,2024-07-26 20:18:42.534,21,false,0.443024,-0.301697,0.583313,0.610291,0.887221,-0.459724,-0.144411,-0.045542,0.001654,0.055375
1722050322.5659,2024-07-26 20:18:42.565,22,false,0.443066,-0.301636,0.583313,0.610291,0.887221,-0.459724,-0.144411,-0.045565,0.001709,0.055258
1722050322.5971,2024-07-26 20:18:42.597,23,false,0.442982,-0.301636,0.583313,0.610352,0.876967,-0.444099,-0.136599,-0.045513,0.001733,0.055213
1722050322.6284,2024-07-26 20:18:42.628,24,false,0.442895,-0.301758,0.583252,0.610413,0.87892,-0.442145,-0.142947,-0.045649,0.001792,0.055185
1722050322.6596,2024-07-26 20:18:42.659,25,false,0.443143,-0.301758,0.583191,0.610291,0.87892,-0.442145,-0.142947,-0.045772,0.001845,0.05516
1722050322.6909,2024-07-26 20:18:42.690,26,false,0.443346,-0.301819,0.583069,0.610229,0.881849,-0.444587,-0.129274,-0.045846,0.00177,0.055137
1722050322.7221,2024-07-26 20:18:42.722,27,false,0.443466,-0.302002,0.582947,0.610168,0.885267,-0.437751,-0.130739,-0.045851,0.001739,0.055177
1722050322.7534,2024-07-26 20:18:42.753,28,false,0.443543,-0.302002,0.582825,0.610229,0.883803,-0.441169,-0.140505,-0.04588,0.001675,0.055153
1722050322.7846,2024-07-26 20:18:42.784,29,false,0.443457,-0.301758,0.582825,0.610413,0.879408,-0.446052,-0.131716,-0.045797,0.001605,0.055119
1722050322.8159,2024-07-26 20:18:42.815,30,false,0.443537,-0.301758,0.582764,0.610413,0.877943,-0.434333,-0.130739,-0.045807,0.00153,0.055076
1722050322.8471,2024-07-26 20:18:42.847,31,false,0.443748,-0.301819,0.582764,0.610229,0.877943,-0.434333,-0.130739,-0.045816,0.001463,0.055037
1722050322.8784,2024-07-26 20:18:42.878,0,false,0.443754,-0.301697,0.582886,0.610168,0.893568,-0.433845,-0.13611,-0.045788,0.001524,0.054978
1722050322.9096,2024-07-26 20:18:42.909,1,false,0.443797,-0.301758,0.582886,0.610107,0.880385,-0.442634,-0.137575,-0.045823,0.001482,0.05501
1722050322.9409,2024-07-26 20:18:42.940,2,false,0.443916,-0.301941,0.582764,0.610046,0.880385,-0.442634,-0.137575,-0.045855,0.001443,0.055039
1722050322.9721,2024-07-26 20:18:42.972,3,false,0.443875,-0.302002,0.582764,0.610046,0.884291,-0.437751,-0.140505,-0.045848,0.001519,0.055016
1722050323.0034,2024-07-26 20:18:43.003,4,false,0.443916,-0.301941,0.582764,0.610046,0.876478,-0.436286,-0.131716,-0.045743,0.001648,0.055056
1722050323.0346,2024-07-26 20:18:43.034,5,false,0.443962,-0.302002,0.582825,0.609924,0.876478,-0.436286,-0.131716,-0.045856,0.001593,0.05502
1722050323.0659,2024-07-26 20:18:43.065,6,false,0.443841,-0.302063,0.582886,0.609924,0.884779,-0.443122,-0.135134,-0.045873,0.001592,0.055096
1722050323.0971,2024-07-26 20:18:43.097,7,false,0.443844,-0.302063,0.582947,0.609863,0.887709,-0.433356,-0.13611,-0.046034,0.001543,0.055178
1722050323.1284,2024-07-26 20:18:43.128,8,false,0.443962,-0.302002,0.582825,0.609924,0.884291,-0.437751,-0.140505,-0.04602,0.001498,0.055214
1722050323.1596,2024-07-26 20:18:43.159,9,false,0.443887,-0.302124,0.582947,0.609802,0.87306,-0.439216,-0.14197,-0.046057,0.001544,0.05521
1722050323.1909,2024-07-26 20:18:43.190,10,false,0.443841,-0.302185,0.582886,0.609863,0.882826,-0.439704,-0.134646,-0.046102,0.001499,0.055219
1722050323.2221,2024-07-26 20:18:43.222,11,false,0.443797,-0.302368,0.582825,0.609863,0.887221,-0.441169,-0.129274,-0.046021,0.001642,0.055252
1722050323.2534,2024-07-26 20:18:43.253,12,false,0.443752,-0.302429,0.582764,0.609924,0.887221,-0.441169,-0.129274,-0.045899,0.001734,0.055268
1722050323.2846,2024-07-26 20:18:43.284,13,false,0.443713,-0.302368,0.582825,0.609924,0.880873,-0.457282,-0.138064,-0.045911,0.001842,0.05532
1722050323.3159,2024-07-26 20:18:43.315,14,false,0.443629,-0.302368,0.582825,0.609985,0.87306,-0.44361,-0.138064,-0.04591,0.001767,0.055379
1722050323.3471,2024-07-26 20:18:43.347,15,false,0.443583,-0.302307,0.582764,0.610107,0.87306,-0.44361,-0.138064,-0.045921,0.00181,0.055469
1722050323.3784,2024-07-26 20:18:43.378,16,false,0.443507,-0.302429,0.582886,0.609985,0.882338,-0.443122,-0.128298,-0.045907,0.001849,0.055501
1722050323.4096,2024-07-26 20:18:43.409,17,false,0.443672,-0.302551,0.582825,0.609863,0.881849,-0.442634,-0.143435,-0.045869,0.001774,0.055505
1722050323.4409,2024-07-26 20:18:43.440,18,false,0.44363,-0.302612,0.582825,0.609863,0.881849,-0.442634,-0.143435,-0.045836,0.001707,0.055509
1722050323.4721,2024-07-26 20:18:43.472,19,false,0.443758,-0.302917,0.582825,0.609619,0.881849,-0.442634,-0.143435,-0.045891,0.001792,0.055414
1722050323.5034,2024-07-26 20:18:43.503,20,false,0.44372,-0.302979,0.582886,0.609558,0.886244,-0.439704,-0.125368,-0.045879,0.001747,0.055452
1722050323.5346,2024-07-26 20:18:43.534,21,false,0.443713,-0.303101,0.582764,0.609619,0.876967,-0.434333,-0.13611,-0.045881,0.001682,0.0554
1722050323.5659,2024-07-26 20:18:43.565,22,false,0.443709,-0.303101,0.582703,0.60968,0.876967,-0.434333,-0.13611,-0.045883,0.001624,0.055353
1722050323.5971,2024-07-26 20:18:43.597,23,false,0.44366,-0.303162,0.582581,0.609802,0.878431,-0.445075,-0.140017,-0.045934,0.001718,0.055421
1722050323.6284,2024-07-26 20:18:43.628,24,false,0.443622,-0.303345,0.582642,0.60968,0.878431,-0.449958,-0.12488,-0.046052,0.001656,0.055323
1722050323.6596,2024-07-26 20:18:43.659,25,false,0.443584,-0.303284,0.582703,0.60968,0.878431,-0.449958,-0.12488,-0.046049,0.001625,0.055272
1722050323.6909,2024-07-26 20:18:43.690,26,false,0.443626,-0.303223,0.582703,0.60968,0.869154,-0.438239,-0.130739,-0.046059,0.001548,0.055214
1722050323.7221,2024-07-26 20:18:43.722,27,false,0.443626,-0.303223,0.582703,0.60968,0.874525,-0.44654,-0.135134,-0.046067,0.001625,0.055246
1722050323.7534,2024-07-26 20:18:43.753,28,false,0.443671,-0.303162,0.582764,0.609619,0.874525,-0.44654,-0.135134,-0.046075,0.001694,0.055276
1722050323.7846,2024-07-26 20:18:43.784,29,false,0.443752,-0.303284,0.582703,0.609558,0.89015,-0.440192,-0.128786,-0.046045,0.001684,0.05523
1722050323.8159,2024-07-26 20:18:43.815,30,false,0.443752,-0.303406,0.582703,0.609497,0.885756,-0.444099,-0.129763,-0.046018,0.001735,0.055188
1722050323.8471,2024-07-26 20:18:43.847,31,false,0.443909,-0.30365,0.58252,0.609436,0.885756,-0.444099,-0.129763,-0.045994,0.001781,0.05515
1722050323.8784,2024-07-26 20:18:43.878,0,false,0.443752,-0.303284,0.582703,0.609558,0.887221,-0.435309,-0.129274,-0.045997,0.001762,0.055092
1722050323.9096,2024-07-26 20:18:43.909,1,false,0.443993,-0.30365,0.58252,0.609375,0.887221,-0.435309,-0.129274,-0.045999,0.001744,0.055039
1722050323.9409,2024-07-26 20:18:43.940,2,false,0.443955,-0.303833,0.582581,0.609253,0.887221,-0.431403,-0.139528,-0.045904,0.001826,0.055138
1722050323.9721,2024-07-26 20:18:43.972,3,false,0.443921,-0.303894,0.582703,0.609131,0.880873,-0.430915,-0.115114,-0.045757,0.001839,0.055105
1722050324.0034,2024-07-26 20:18:44.003,4,false,0.444088,-0.303894,0.582703,0.609009,0.880873,-0.430915,-0.115114,-0.045734,0.001801,0.055125
1722050324.0346,2024-07-26 20:18:44.034,5,false,0.444043,-0.303833,0.582642,0.609131,0.879896,-0.439704,-0.132692,-0.045849,0.001853,0.055106
1722050324.0659,2024-07-26 20:18:44.065,6,false,0.444043,-0.303833,0.582642,0.609131,0.871595,-0.439704,-0.142947,-0.045768,0.001827,0.055137
1722050324.0971,2024-07-26 20:18:44.097,7,false,0.444081,-0.303772,0.582581,0.609192,0.871595,-0.439704,-0.142947,-0.045696,0.001803,0.055165
1722050324.1284,2024-07-26 20:18:44.128,8,false,0.443882,-0.303589,0.582764,0.609253,0.881361,-0.436286,-0.130251,-0.045765,0.001757,0.055228
1722050324.1596,2024-07-26 20:18:44.159,9,false,0.443878,-0.303589,0.582703,0.609314,0.872572,-0.425544,-0.125368,-0.045742,0.001666,0.055296
1722050324.1909,2024-07-26 20:18:44.190,10,false,0.443882,-0.303711,0.582764,0.609192,0.872572,-0.425544,-0.125368,-0.045721,0.001585,0.055357
1722050324.2221,2024-07-26 20:18:44.222,11,false,0.443962,-0.303711,0.582703,0.609192,0.879896,-0.431403,-0.138552,-0.045739,0.001659,0.055351
1722050324.2534,2024-07-26 20:18:44.253,12,false,0.444053,-0.303833,0.582825,0.608948,0.87599,-0.438727,-0.125368,-0.045657,0.001639,0.055261
1722050324.2846,2024-07-26 20:18:44.284,13,false,0.444046,-0.303955,0.582703,0.609009,0.886244,-0.445563,-0.144411,-0.045755,0.001634,0.055216
1722050324.3159,2024-07-26 20:18:44.315,14,false,0.444005,-0.304138,0.582703,0.608948,0.888197,-0.434333,-0.133669,-0.045659,0.001605,0.055114
1722050324.3471,2024-07-26 20:18:44.347,15,false,0.443921,-0.304138,0.582703,0.609009,0.890639,-0.434333,-0.127321,-0.045708,0.001652,0.055132
1722050324.3784,2024-07-26 20:18:44.378,16,false,0.443966,-0.304077,0.582764,0.608948,0.890639,-0.434333,-0.127321,-0.045727,0.001755,0.055112
1722050324.4096,2024-07-26 20:18:44.409,17,false,0.444092,-0.304016,0.582764,0.608887,0.877455,-0.439216,-0.135622,-0.045634,0.0018,0.055229
1722050324.4409,2024-07-26 20:18:44.440,18,false,0.444054,-0.303955,0.582825,0.608887,0.891127,-0.441657,-0.132204,-0.045722,0.00179,0.055199
1722050324.4721,2024-07-26 20:18:44.472,19,false,0.443925,-0.304016,0.582764,0.609009,0.891127,-0.441657,-0.132204,-0.0458,0.001819,0.055148
1722050324.5034,2024-07-26 20:18:44.503,20,false,0.444008,-0.303894,0.582764,0.609009,0.875502,-0.450935,-0.136599,-0.045688,0.001747,0.055126
1722050324.5346,2024-07-26 20:18:44.534,21,false,0.443963,-0.303955,0.582703,0.60907,0.887709,-0.427985,-0.132204,-0.045612,0.00178,0.055205
1722050324.5659,2024-07-26 20:18:44.565,22,false,0.443924,-0.303894,0.582764,0.60907,0.887709,-0.427985,-0.132204,-0.045543,0.001809,0.055275
1722050324.5971,2024-07-26 20:18:44.597,23,false,0.443966,-0.303955,0.582764,0.609009,0.880385,-0.438727,-0.125368,-0.045493,0.001946,0.055351
1722050324.6284,2024-07-26 20:18:44.628,24,false,0.444088,-0.304016,0.582703,0.608948,0.877455,-0.436774,-0.134646,-0.045473,0.001861,0.055407
1722050324.6596,2024-07-26 20:18:44.659,25,false,0.443924,-0.303894,0.582764,0.60907,0.875502,-0.450935,-0.136599,-0.045527,0.001931,0.055469
1722050324.6909,2024-07-26 20:18:44.690,26,false,0.444043,-0.304199,0.582642,0.608948,0.888197,-0.442145,-0.135622,-0.045613,0.001995,0.055342
1722050324.7221,2024-07-26 20:18:44.722,27,false,0.444165,-0.30426,0.582581,0.608887,0.891127,-0.442145,-0.135622,-0.045642,0.001966,0.055338
1722050324.7534,2024-07-26 20:18:44.753,28,false,0.444165,-0.304382,0.582581,0.608826,0.876967,-0.438727,-0.134646,-0.04557,0.002001,0.055297
1722050324.7846,2024-07-26 20:18:44.784,29,false,0.444207,-0.304321,0.582581,0.608826,0.876967,-0.438727,-0.134646,-0.045505,0.002033,0.055261
1722050324.8159,2024-07-26 20:18:44.815,30,false,0.44413,-0.304321,0.582703,0.608765,0.873549,-0.426032,-0.137087,-0.045593,0.002111,0.055362
1722050324.8471,2024-07-26 20:18:44.847,31,false,0.444256,-0.30426,0.582703,0.608704,0.889174,-0.44361,-0.134157,-0.045612,0.002217,0.055368
1722050324.8784,2024-07-26 20:18:44.878,0,false,0.444214,-0.304321,0.582703,0.608704,0.889174,-0.44361,-0.134157,-0.045628,0.002313,0.055373
1722050324.9096,2024-07-26 20:18:44.909,1,false,0.444374,-0.304443,0.582581,0.608643,0.883314,-0.430915,-0.125368,-0.04557,0.002179,0.055354
1722050324.9409,2024-07-26 20:18:44.940,2,false,0.444419,-0.304382,0.582642,0.608582,0.879896,-0.434821,-0.127321,-0.045493,0.002095,0.055275
1722050324.9721,2024-07-26 20:18:44.972,3,false,0.444301,-0.304443,0.582764,0.608521,0.879896,-0.434821,-0.127321,-0.045424,0.00202,0.055204
1722050325.0034,2024-07-26 20:18:45.003,4,false,0.444096,-0.304382,0.582825,0.608643,0.879896,-0.434821,-0.127321,-0.045361,0.001952,0.05514
1722050325.0346,2024-07-26 20:18:45.034,5,false,0.44389,-0.304443,0.582886,0.608704,0.885267,-0.436774,-0.125368,-0.045305,0.001952,0.055083
1722050325.0659,2024-07-26 20:18:45.065,6,false,0.443764,-0.304504,0.582886,0.608765,0.883803,-0.435798,-0.139528,-0.045353,0.00183,0.055178
1722050325.0971,2024-07-26 20:18:45.097,7,false,0.443848,-0.304382,0.582886,0.608765,0.883803,-0.435798,-0.139528,-0.045395,0.001721,0.055263
1722050325.1284,2024-07-26 20:18:45.128,8,false,0.443855,-0.30426,0.583008,0.608704,0.884779,-0.431891,-0.135622,-0.045299,0.001744,0.055132
1722050325.1596,2024-07-26 20:18:45.159,9,false,0.444064,-0.304199,0.583008,0.608582,0.882826,-0.435798,-0.133669,-0.045249,0.001887,0.055137
1722050325.1909,2024-07-26 20:18:45.190,10,false,0.444064,-0.304199,0.583008,0.608582,0.882826,-0.435798,-0.133669,-0.045168,0.001857,0.05508
1722050325.2221,2024-07-26 20:18:45.222,11,false,0.443932,-0.304138,0.582886,0.608826,0.873549,-0.437263,-0.12781,-0.045265,0.001879,0.055126
1722050325.2534,2024-07-26 20:18:45.253,12,false,0.44405,-0.304199,0.582764,0.608826,0.880873,-0.448005,-0.136599,-0.045402,0.001911,0.055192
1722050325.2846,2024-07-26 20:18:45.284,13,false,0.444088,-0.304138,0.582703,0.608887,0.880873,-0.448005,-0.136599,-0.045525,0.001939,0.055252
1722050325.3159,2024-07-26 20:18:45.315,14,false,0.444214,-0.303833,0.582703,0.608948,0.87892,-0.42945,-0.134157,-0.045501,0.001953,0.055256
1722050325.3471,2024-07-26 20:18:45.347,15,false,0.444217,-0.303711,0.582764,0.608948,0.882826,-0.429938,-0.138552,-0.045639,0.00199,0.055224
1722050325.3784,2024-07-26 20:18:45.378,16,false,0.444217,-0.303589,0.582764,0.609009,0.882826,-0.429938,-0.138552,-0.045762,0.002022,0.055195
1722050325.4096,2024-07-26 20:18:45.409,17,false,0.444214,-0.303833,0.582703,0.608948,0.885267,-0.43238,-0.128298,-0.045898,0.001967,0.055144
1722050325.4409,2024-07-26 20:18:45.440,18,false,0.444342,-0.30365,0.582764,0.608887,0.885267,-0.43238,-0.128298,-0.045849,0.001965,0.055172
1722050325.4721,2024-07-26 20:18:45.472,19,false,0.444259,-0.30365,0.582764,0.608948,0.878431,-0.426032,-0.136599,-0.045793,0.001976,0.055184
1722050325.5034,2024-07-26 20:18:45.503,20,false,0.444297,-0.303589,0.582703,0.609009,0.877455,-0.441169,-0.136599,-0.045804,0.001986,0.055159
1722050325.5346,2024-07-26 20:18:45.534,21,false,0.444178,-0.303406,0.582825,0.60907,0.877455,-0.441169,-0.136599,-0.045874,0.001934,0.055173
1722050325.5659,2024-07-26 20:18:45.565,22,false,0.443934,-0.303284,0.582947,0.609192,0.888685,-0.438239,-0.130739,-0.045865,0.001997,0.055235
1722050325.5971,2024-07-26 20:18:45.597,23,false,0.443937,-0.303284,0.583008,0.609131,0.89308,-0.450446,-0.123903,-0.045819,0.002017,0.055229
1722050325.6284,2024-07-26 20:18:45.628,24,false,0.443892,-0.303345,0.582947,0.609192,0.89308,-0.450446,-0.123903,-0.045815,0.001974,0.055309
1722050325.6596,2024-07-26 20:18:45.659,25,false,0.443854,-0.303284,0.583008,0.609192,0.894057,-0.443122,-0.137575,-0.045787,0.001984,0.055247
1722050325.6909,2024-07-26 20:18:45.690,26,false,0.443979,-0.303223,0.583008,0.609131,0.87599,-0.429938,-0.131716,-0.045798,0.002054,0.055277
1722050325.7221,2024-07-26 20:18:45.722,27,false,0.443982,-0.303101,0.583069,0.609131,0.87599,-0.429938,-0.131716,-0.045759,0.001983,0.055352
1722050325.7534,2024-07-26 20:18:45.753,28,false,0.443989,-0.302979,0.583191,0.60907,0.884779,-0.437263,-0.134646,-0.045627,0.002066,0.055334
1722050325.7846,2024-07-26 20:18:45.784,29,false,0.443612,-0.302917,0.583191,0.609375,0.874525,-0.42652,-0.132204,-0.045532,0.00203,0.055355
1722050325.8159,2024-07-26 20:18:45.815,30,false,0.443447,-0.302795,0.583252,0.609497,0.889662,-0.422614,-0.117556,-0.045459,0.002047,0.055276
1722050325.8471,2024-07-26 20:18:45.847,31,false,0.443447,-0.302795,0.583252,0.609497,0.873549,-0.441657,-0.134646,-0.045442,0.00205,0.055303
1722050325.8784,2024-07-26 20:18:45.878,0,false,0.443572,-0.302612,0.583252,0.609497,0.89308,-0.443122,-0.130251,-0.045475,0.002064,0.055376
1722050325.9096,2024-07-26 20:18:45.909,1,false,0.443652,-0.30249,0.583191,0.609558,0.89308,-0.443122,-0.130251,-0.045506,0.002078,0.055441
1722050325.9409,2024-07-26 20:18:45.940,2,false,0.443567,-0.302368,0.583191,0.60968,0.881361,-0.446052,-0.132204,-0.045508,0.002016,0.05539
1722050325.9721,2024-07-26 20:18:45.972,3,false,0.443442,-0.302429,0.583191,0.609741,0.882826,-0.438727,-0.145388,-0.045621,0.001973,0.055247
1722050326.0034,2024-07-26 20:18:46.003,4,false,0.443476,-0.302368,0.583069,0.609863,0.882826,-0.438727,-0.145388,-0.045722,0.001935,0.055118
1722050326.0346,2024-07-26 20:18:46.034,5,false,0.443514,-0.302307,0.583008,0.609924,0.87599,-0.44947,-0.128298,-0.045764,0.001949,0.055136
1722050326.0659,2024-07-26 20:18:46.065,6,false,0.44335,-0.302307,0.583069,0.609985,0.888197,-0.433845,-0.140505,-0.045851,0.001913,0.055164
1722050326.0971,2024-07-26 20:18:46.097,7,false,0.443563,-0.302246,0.58313,0.609802,0.888197,-0.433845,-0.140505,-0.045929,0.00188,0.05519
1722050326.1284,2024-07-26 20:18:46.128,8,false,0.443486,-0.302246,0.583252,0.609741,0.886244,-0.431891,-0.12781,-0.04584,0.001729,0.055213
1722050326.1596,2024-07-26 20:18:46.159,9,false,0.443448,-0.302185,0.583313,0.609741,0.881849,-0.430426,-0.126833,-0.045871,0.001641,0.055246
1722050326.1909,2024-07-26 20:18:46.190,10,false,0.443563,-0.302246,0.58313,0.609802,0.87599,-0.44947,-0.128298,-0.045861,0.001611,0.055203
1722050326.2221,2024-07-26 20:18:46.222,11,false,0.44349,-0.302246,0.583313,0.60968,0.869154,-0.436286,-0.136599,-0.045853,0.001585,0.055163
1722050326.2534,2024-07-26 20:18:46.253,12,false,0.443524,-0.302185,0.583191,0.609802,0.879408,-0.444099,-0.119509,-0.045857,0.001512,0.055238
1722050326.2846,2024-07-26 20:18:46.284,13,false,0.443364,-0.302185,0.583313,0.609802,0.87892,-0.448981,-0.133669,-0.045813,0.00158,0.055317
1722050326.3159,2024-07-26 20:18:46.315,14,false,0.443201,-0.301941,0.583435,0.609924,0.87892,-0.448981,-0.133669,-0.045773,0.001678,0.055144
1722050326.3471,2024-07-26 20:18:46.347,15,false,0.443278,-0.301941,0.583313,0.609985,0.889662,-0.439216,-0.136599,-0.045956,0.001523,0.055111
1722050326.3784,2024-07-26 20:18:46.378,16,false,0.443152,-0.30188,0.583313,0.610107,0.883314,-0.446052,-0.136599,-0.045853,0.0017,0.055008
1722050326.4096,2024-07-26 20:18:46.409,17,false,0.443151,-0.301758,0.583313,0.610168,0.883314,-0.446052,-0.136599,-0.045845,0.001725,0.055049
1722050326.4409,2024-07-26 20:18:46.440,18,false,0.443196,-0.301697,0.583374,0.610107,0.870619,-0.437263,-0.126345,-0.045753,0.00176,0.055037
1722050326.4721,2024-07-26 20:18:46.472,19,false,0.44328,-0.301697,0.583374,0.610046,0.882338,-0.442145,-0.13904,-0.045792,0.001914,0.054978
1722050326.5034,2024-07-26 20:18:46.503,20,false,0.443441,-0.301697,0.583252,0.610046,0.882338,-0.442145,-0.13904,-0.045852,0.001918,0.054961
1722050326.5346,2024-07-26 20:18:46.534,21,false,0.443486,-0.301636,0.583313,0.609985,0.881849,-0.430426,-0.126833,-0.045917,0.001897,0.054958
1722050326.5659,2024-07-26 20:18:46.565,22,false,0.443444,-0.301697,0.583313,0.609985,0.877455,-0.444587,-0.139528,-0.04583,0.001842,0.054883
1722050326.5971,2024-07-26 20:18:46.597,23,false,0.443528,-0.301697,0.583313,0.609924,0.881361,-0.441657,-0.140993,-0.045886,0.001853,0.055022
1722050326.6284,2024-07-26 20:18:46.628,24,false,0.443566,-0.301636,0.583252,0.609985,0.875013,-0.445563,-0.132692,-0.045887,0.001936,0.055013
1722050326.6596,2024-07-26 20:18:46.659,25,false,0.443566,-0.301636,0.583252,0.609985,0.877455,-0.445075,-0.143923,-0.045888,0.001974,0.055005
1722050326.6909,2024-07-26 20:18:46.690,26,false,0.443489,-0.301514,0.583374,0.609985,0.877455,-0.445075,-0.143923,-0.045877,0.002094,0.055083
1722050326.7221,2024-07-26 20:18:46.722,27,false,0.443652,-0.301392,0.583313,0.609985,0.89015,-0.439704,-0.141482,-0.045892,0.002202,0.055092
1722050326.7534,2024-07-26 20:18:46.753,28,false,0.443857,-0.301331,0.583252,0.609924,0.875013,-0.444099,-0.137087,-0.045807,0.002116,0.055101
1722050326.7846,2024-07-26 20:18:46.784,29,false,0.443737,-0.301147,0.583374,0.609985,0.875013,-0.444099,-0.137087,-0.045731,0.002039,0.055108
1722050326.8159,2024-07-26 20:18:46.815,30,false,0.44382,-0.301025,0.583374,0.609985,0.875502,-0.438727,-0.131716,-0.045796,0.001969,0.05514
1722050326.8471,2024-07-26 20:18:46.847,31,false,0.443702,-0.301086,0.583496,0.609924,0.883314,-0.440681,-0.140993,-0.045855,0.002029,0.055229
1722050326.8784,2024-07-26 20:18:46.878,0,false,0.443747,-0.301025,0.583557,0.609863,0.883314,-0.440681,-0.140993,-0.045774,0.001985,0.055333
1722050326.9096,2024-07-26 20:18:46.909,1,false,0.443709,-0.301086,0.583618,0.609802,0.892592,-0.44361,-0.132204,-0.045799,0.001981,0.055379
1722050326.9409,2024-07-26 20:18:46.940,2,false,0.443702,-0.301086,0.583496,0.609924,0.892592,-0.44361,-0.132204,-0.045797,0.002003,0.055383
1722050326.9721,2024-07-26 20:18:46.972,3,false,0.443629,-0.301086,0.583679,0.609802,0.889174,-0.442145,-0.138552,-0.045795,0.00212,0.055265
1722050327.0034,2024-07-26 20:18:47.003,4,false,0.443587,-0.301025,0.583679,0.609863,0.881849,-0.439704,-0.129763,-0.045769,0.002018,0.055268
1722050327.0346,2024-07-26 20:18:47.034,5,false,0.443425,-0.300903,0.583801,0.609924,0.881849,-0.439704,-0.129763,-0.045745,0.001926,0.055271
1722050327.0659,2024-07-26 20:18:47.065,6,false,0.443508,-0.300781,0.583801,0.609924,0.880873,-0.439704,-0.129274,-0.045748,0.001807,0.055286
1722050327.0971,2024-07-26 20:18:47.097,7,false,0.443589,-0.300903,0.58374,0.609863,0.873549,-0.437751,-0.12781,-0.045666,0.001772,0.055373
1722050327.1284,2024-07-26 20:18:47.128,8,false,0.443549,-0.301086,0.58374,0.609802,0.873549,-0.437751,-0.12781,-0.04575,0.001827,0.055426
1722050327.1596,2024-07-26 20:18:47.159,9,false,0.443588,-0.301147,0.583679,0.609802,0.886244,-0.440681,-0.129763,-0.045753,0.001742,0.055426
1722050327.1909,2024-07-26 20:18:47.190,10,false,0.443587,-0.301025,0.583679,0.609863,0.888685,-0.434821,-0.131228,-0.04567,0.001653,0.055267
1722050327.2221,2024-07-26 20:18:47.222,11,false,0.443709,-0.301086,0.583618,0.609802,0.888685,-0.434821,-0.131228,-0.045595,0.001573,0.055123
1722050327.2534,2024-07-26 20:18:47.253,12,false,0.443546,-0.301208,0.583679,0.609802,0.881849,-0.439704,-0.139528,-0.045625,0.001648,0.05508
1722050327.2846,2024-07-26 20:18:47.284,13,false,0.443421,-0.30127,0.583679,0.609863,0.875013,-0.453376,-0.135134,-0.045592,0.001715,0.055126
1722050327.3159,2024-07-26 20:18:47.315,14,false,0.443053,-0.300842,0.583923,0.610107,0.875013,-0.453376,-0.135134,-0.045561,0.001776,0.055168
1722050327.3471,2024-07-26 20:18:47.347,15,false,0.443053,-0.300842,0.583923,0.610107,0.875013,-0.453376,-0.135134,-0.045644,0.001879,0.055279
1722050327.3784,2024-07-26 20:18:47.378,16,false,0.443057,-0.300842,0.583984,0.610046,0.87892,-0.44947,-0.132692,-0.045633,0.001898,0.055134
1722050327.4096,2024-07-26 20:18:47.409,17,false,0.443016,-0.300903,0.583984,0.610046,0.886732,-0.456794,-0.13904,-0.045708,0.001843,0.055224
1722050327.4409,2024-07-26 20:18:47.440,18,false,0.443138,-0.300842,0.583923,0.610046,0.886732,-0.456794,-0.13904,-0.045837,0.001854,0.055244
1722050327.4721,2024-07-26 20:18:47.472,19,false,0.443141,-0.300842,0.583984,0.609985,0.87013,-0.443122,-0.137575,-0.045807,0.0019,0.05531
1722050327.5034,2024-07-26 20:18:47.503,20,false,0.443222,-0.300842,0.583923,0.609985,0.880873,-0.441169,-0.131716,-0.045804,0.001869,0.055297
1722050327.5346,2024-07-26 20:18:47.534,21,false,0.443222,-0.300842,0.583923,0.609985,0.880873,-0.441169,-0.131716,-0.045801,0.001841,0.055285
1722050327.5659,2024-07-26 20:18:47.565,22,false,0.443306,-0.300842,0.583923,0.609924,0.877455,-0.441169,-0.125368,-0.045811,0.001864,0.055311
1722050327.5971,2024-07-26 20:18:47.597,23,false,0.443428,-0.300903,0.583862,0.609863,0.881361,-0.430426,-0.131716,-0.04593,0.001776,0.055322
1722050327.6284,2024-07-26 20:18:47.628,24,false,0.443509,-0.300903,0.583801,0.609863,0.881361,-0.430426,-0.131716,-0.046037,0.001696,0.055331
1722050327.6596,2024-07-26 20:18:47.659,25,false,0.443551,-0.300964,0.583801,0.609802,0.881849,-0.44361,-0.130739,-0.046084,0.001734,0.055353
1722050327.6909,2024-07-26 20:18:47.690,26,false,0.44351,-0.301025,0.583801,0.609802,0.874525,-0.446052,-0.13611,-0.046053,0.001817,0.055359
1722050327.7221,2024-07-26 20:18:47.722,27,false,0.443509,-0.300903,0.583801,0.609863,0.877455,-0.441169,-0.125368,-0.045989,0.00183,0.055427
1722050327.7534,2024-07-26 20:18:47.753,28,false,0.443384,-0.301086,0.583801,0.609863,0.882826,-0.430915,-0.125856,-0.045931,0.001843,0.055487
1722050327.7846,2024-07-26 20:18:47.784,29,false,0.443258,-0.301025,0.583801,0.609985,0.895033,-0.452888,-0.133669,-0.045928,0.001829,0.05559
1722050327.8159,2024-07-26 20:18:47.815,30,false,0.443337,-0.300903,0.58374,0.610046,0.889174,-0.44947,-0.137087,-0.045815,0.001866,0.055512
1722050327.8471,2024-07-26 20:18:47.847,31,false,0.443139,-0.300964,0.583923,0.609985,0.889174,-0.44947,-0.137087,-0.045824,0.001911,0.055515
1722050327.8784,2024-07-26 20:18:47.878,0,false,0.443264,-0.300903,0.583923,0.609924,0.884291,-0.44654,-0.126833,-0.045831,0.001952,0.055518
1722050327.9096,2024-07-26 20:18:47.909,1,false,0.443391,-0.300964,0.583923,0.609802,0.893568,-0.448005,-0.128298,-0.045777,0.001928,0.055496
1722050327.9409,2024-07-26 20:18:47.940,2,false,0.443558,-0.300964,0.583923,0.60968,0.893568,-0.448005,-0.128298,-0.045728,0.001906,0.055476
1722050327.9721,2024-07-26 20:18:47.972,3,false,0.443723,-0.300964,0.583862,0.609619,0.887221,-0.447028,-0.135134,-0.045733,0.001813,0.055349
1722050328.0034,2024-07-26 20:18:48.003,4,false,0.44389,-0.300964,0.583862,0.609497,0.877455,-0.438239,-0.142947,-0.045664,0.001851,0.055356
1722050328.0346,2024-07-26 20:18:48.034,5,false,0.443894,-0.300964,0.583923,0.609436,0.877455,-0.438239,-0.142947,-0.045602,0.001886,0.055362
1722050328.0659,2024-07-26 20:18:48.065,6,false,0.443805,-0.300842,0.583862,0.609619,0.87892,-0.43238,-0.132204,-0.045485,0.001954,0.055515
1722050328.0971,2024-07-26 20:18:48.097,7,false,0.44352,-0.300537,0.584045,0.609802,0.875013,-0.445075,-0.126345,-0.045527,0.001929,0.055408
1722050328.1284,2024-07-26 20:18:48.128,8,false,0.443518,-0.300415,0.584045,0.609863,0.885756,-0.429938,-0.115602,-0.045576,0.001895,0.055446
1722050328.1596,2024-07-26 20:18:48.159,9,false,0.443645,-0.300476,0.584045,0.609741,0.882338,-0.429938,-0.129763,-0.045609,0.001791,0.055492
1722050328.1909,2024-07-26 20:18:48.190,10,false,0.44368,-0.300537,0.583923,0.609802,0.886244,-0.442145,-0.130739,-0.045601,0.001905,0.055436
1722050328.2221,2024-07-26 20:18:48.222,11,false,0.443844,-0.300537,0.583862,0.609741,0.886244,-0.442145,-0.130739,-0.045594,0.002007,0.055386
1722050328.2534,2024-07-26 20:18:48.253,12,false,0.443893,-0.300476,0.583984,0.609619,0.882338,-0.437263,-0.128298,-0.045564,0.001953,0.05534
1722050328.2846,2024-07-26 20:18:48.284,13,false,0.444099,-0.300537,0.583923,0.609497,0.884291,-0.452888,-0.134157,-0.045512,0.002014,0.055409
1722050328.3159,2024-07-26 20:18:48.315,14,false,0.444223,-0.30072,0.583862,0.609375,0.884291,-0.452888,-0.134157,-0.045465,0.002069,0.055472
1722050328.3471,2024-07-26 20:18:48.347,15,false,0.444221,-0.300842,0.583801,0.609375,0.884779,-0.454841,-0.129763,-0.045521,0.002021,0.055552
1722050328.3784,2024-07-26 20:18:48.378,16,false,0.444259,-0.300781,0.58374,0.609436,0.889662,-0.437751,-0.129274,-0.045497,0.002026,0.055551
1722050328.4096,2024-07-26 20:18:48.409,17,false,0.444259,-0.300781,0.58374,0.609436,0.889662,-0.437751,-0.129274,-0.045477,0.002031,0.05555
1722050328.4409,2024-07-26 20:18:48.440,18,false,0.444263,-0.300903,0.583801,0.609314,0.889174,-0.428962,-0.12488,-0.045665,0.001926,0.055513
1722050328.4721,2024-07-26 20:18:48.472,19,false,0.44402,-0.301025,0.583923,0.609314,0.876967,-0.448493,-0.141482,-0.045701,0.001867,0.055504
1722050328.5034,2024-07-26 20:18:48.503,20,false,0.444259,-0.300781,0.58374,0.609436,0.884779,-0.454841,-0.129763,-0.045733,0.001815,0.05541
1722050328.5346,2024-07-26 20:18:48.534,21,false,0.444104,-0.301025,0.583923,0.609253,0.87892,-0.435309,-0.131716,-0.045762,0.001768,0.055326
1722050328.5659,2024-07-26 20:18:48.565,22,false,0.444104,-0.301025,0.583923,0.609253,0.868666,-0.441657,-0.125856,-0.045824,0.001689,0.055311
1722050328.5971,2024-07-26 20:18:48.597,23,false,0.444023,-0.301025,0.583984,0.609253,0.876967,-0.451911,-0.139528,-0.045844,0.001715,0.055322
1722050328.6284,2024-07-26 20:18:48.628,24,false,0.444107,-0.301025,0.583984,0.609192,0.876967,-0.451911,-0.139528,-0.045923,0.001763,0.055393
1722050328.6596,2024-07-26 20:18:48.659,25,false,0.44427,-0.300903,0.583923,0.609192,0.890639,-0.445563,-0.136599,-0.045945,0.001697,0.055261
1722050328.6909,2024-07-26 20:18:48.690,26,false,0.44435,-0.300903,0.583862,0.609192,0.877943,-0.432868,-0.135622,-0.045928,0.001661,0.055399
1722050328.7221,2024-07-26 20:18:48.722,27,false,0.444433,-0.300781,0.583862,0.609192,0.877943,-0.432868,-0.135622,-0.045913,0.00163,0.055523
1722050328.7534,2024-07-26 20:18:48.753,28,false,0.44468,-0.300781,0.583801,0.60907,0.880385,-0.437751,-0.135622,-0.045851,0.001674,0.055501
1722050328.7846,2024-07-26 20:18:48.784,29,false,0.444767,-0.300781,0.583862,0.608948,0.884291,-0.44361,-0.128786,-0.045843,0.001641,0.055469
1722050328.8159,2024-07-26 20:18:48.815,30,false,0.444851,-0.300781,0.583862,0.608887,0.884291,-0.44361,-0.128786,-0.045837,0.001611,0.055439
1722050328.8471,2024-07-26 20:18:48.847,31,false,0.444524,-0.300415,0.584045,0.609131,0.884291,-0.44361,-0.128786,-0.045831,0.001584,0.055413
1722050328.8784,2024-07-26 20:18:48.878,0,false,0.444525,-0.300171,0.584106,0.609192,0.877943,-0.44947,-0.137087,-0.04585,0.001646,0.055389
1722050328.9096,2024-07-26 20:18:48.909,1,false,0.444527,-0.300049,0.584167,0.609192,0.884779,-0.453376,-0.126345,-0.045806,0.001676,0.055332
1722050328.9409,2024-07-26 20:18:48.940,2,false,0.444568,-0.299988,0.584167,0.609192,0.884779,-0.453376,-0.126345,-0.045815,0.001558,0.055292
1722050328.9721,2024-07-26 20:18:48.972,3,false,0.444529,-0.299927,0.584229,0.609192,0.881849,-0.447028,-0.137575,-0.045787,0.001512,0.055317
1722050329.0034,2024-07-26 20:18:49.003,4,false,0.444694,-0.300049,0.584167,0.60907,0.880385,-0.440681,-0.138552,-0.0457,0.001568,0.055193
1722050329.0346,2024-07-26 20:18:49.034,5,false,0.444612,-0.300171,0.584167,0.60907,0.880385,-0.440681,-0.138552,-0.045672,0.00157,0.055155
1722050329.0659,2024-07-26 20:18:49.065,6,false,0.444619,-0.300171,0.58429,0.608948,0.885756,-0.437263,-0.135622,-0.045658,0.001584,0.055084
1722050329.0971,2024-07-26 20:18:49.097,7,false,0.444622,-0.300171,0.584351,0.608887,0.867689,-0.449958,-0.126833,-0.045694,0.001621,0.055093
1722050329.1284,2024-07-26 20:18:49.128,8,false,0.444622,-0.300171,0.584351,0.608887,0.867689,-0.449958,-0.126833,-0.045617,0.00163,0.055199
1722050329.1596,2024-07-26 20:18:49.159,9,false,0.444459,-0.300293,0.584412,0.608887,0.879896,-0.440681,-0.125856,-0.045694,0.001723,0.055258
1722050329.1909,2024-07-26 20:18:49.190,10,false,0.444503,-0.300476,0.584412,0.608765,0.874037,-0.437263,-0.131716,-0.045763,0.001685,0.055152
1722050329.2221,2024-07-26 20:18:49.222,11,false,0.444505,-0.300354,0.584473,0.608765,0.874037,-0.437263,-0.131716,-0.045765,0.001797,0.055118
1722050329.2534,2024-07-26 20:18:49.253,12,false,0.444459,-0.300293,0.584412,0.608887,0.872084,-0.436774,-0.12781,-0.045803,0.001825,0.05516
1722050329.2846,2024-07-26 20:18:49.284,13,false,0.44434,-0.300232,0.584534,0.608887,0.872084,-0.436774,-0.12781,-0.045837,0.00185,0.055199
1722050329.3159,2024-07-26 20:18:49.315,14,false,0.444299,-0.300293,0.584534,0.608887,0.87892,-0.436286,-0.131716,-0.045867,0.001812,0.055233
1722050329.3471,2024-07-26 20:18:49.347,15,false,0.444261,-0.300354,0.584595,0.608826,0.87306,-0.461189,-0.131716,-0.045858,0.001789,0.055337
1722050329.3784,2024-07-26 20:18:49.378,16,false,0.444221,-0.300171,0.584656,0.608887,0.87306,-0.461189,-0.131716,-0.045936,0.00183,0.055382
1722050329.4096,2024-07-26 20:18:49.409,17,false,0.444099,-0.300232,0.584717,0.608887,0.880385,-0.442634,-0.129763,-0.045822,0.001842,0.055301
1722050329.4409,2024-07-26 20:18:49.440,18,false,0.444223,-0.300415,0.584656,0.608765,0.871107,-0.444099,-0.133669,-0.045952,0.001768,0.055264
1722050329.4721,2024-07-26 20:18:49.472,19,false,0.444385,-0.300537,0.584534,0.608704,0.871107,-0.444099,-0.133669,-0.046069,0.001701,0.055231
1722050329.5034,2024-07-26 20:18:49.503,20,false,0.444591,-0.300598,0.584473,0.608582,0.866712,-0.440681,-0.128298,-0.046039,0.001812,0.055311
1722050329.5346,2024-07-26 20:18:49.534,21,false,0.444718,-0.300781,0.584473,0.608398,0.881849,-0.44361,-0.135134,-0.046086,0.001777,0.055273
1722050329.5659,2024-07-26 20:18:49.565,22,false,0.44476,-0.300842,0.584473,0.608337,0.881849,-0.44361,-0.135134,-0.046056,0.001697,0.055202
1722050329.5971,2024-07-26 20:18:49.597,23,false,0.444761,-0.300964,0.584473,0.608276,0.873549,-0.435798,-0.133181,-0.04604,0.001735,0.055236
1722050329.6284,2024-07-26 20:18:49.628,24,false,0.444395,-0.301025,0.584656,0.608337,0.880385,-0.431891,-0.123903,-0.046075,0.001757,0.055194
1722050329.6596,2024-07-26 20:18:49.659,25,false,0.444234,-0.301025,0.584778,0.608337,0.882826,-0.430426,-0.138552,-0.046118,0.001813,0.055229
1722050329.6909,2024-07-26 20:18:49.690,26,false,0.444116,-0.301086,0.5849,0.608276,0.878431,-0.445075,-0.119997,-0.046047,0.001729,0.055284
1722050329.7221,2024-07-26 20:18:49.722,27,false,0.444244,-0.301025,0.584961,0.608154,0.878431,-0.442634,-0.142458,-0.046081,0.00163,0.055298
1722050329.7534,2024-07-26 20:18:49.753,28,false,0.44445,-0.301086,0.5849,0.608032,0.878431,-0.442634,-0.142458,-0.046112,0.00154,0.05531
1722050329.7846,2024-07-26 20:18:49.784,29,false,0.444531,-0.301208,0.584839,0.607971,0.883314,-0.437263,-0.133181,-0.046201,0.001545,0.055199
1722050329.8159,2024-07-26 20:18:49.815,30,false,0.444526,-0.301453,0.584717,0.607971,0.877455,-0.447517,-0.137087,-0.046122,0.001646,0.055197
1722050329.8471,2024-07-26 20:18:49.847,31,false,0.444568,-0.301514,0.584717,0.60791,0.877455,-0.447517,-0.137087,-0.046051,0.001738,0.055195
1722050329.8784,2024-07-26 20:18:49.878,0,false,0.44461,-0.301575,0.584717,0.607849,0.879896,-0.445075,-0.121462,-0.045938,0.001674,0.05512
1722050329.9096,2024-07-26 20:18:49.909,1,false,0.444608,-0.301819,0.584656,0.607788,0.874525,-0.448981,-0.13611,-0.045897,0.001678,0.055138
1722050329.9409,2024-07-26 20:18:49.940,2,false,0.444609,-0.301941,0.584656,0.607727,0.874525,-0.448981,-0.13611,-0.045861,0.001681,0.055154
1722050329.9721,2024-07-26 20:18:49.972,3,false,0.444696,-0.301941,0.584717,0.607605,0.873549,-0.43238,-0.133181,-0.045779,0.001708,0.055242
1722050330.0034,2024-07-26 20:18:50.003,4,false,0.444526,-0.302063,0.584656,0.607727,0.887709,-0.42945,-0.131228,-0.045864,0.001818,0.055345
1722050330.0346,2024-07-26 20:18:50.034,5,false,0.444609,-0.301941,0.584656,0.607727,0.879896,-0.445075,-0.121462,-0.045917,0.001832,0.055292
1722050330.0659,2024-07-26 20:18:50.065,6,false,0.44444,-0.302185,0.584595,0.607788,0.885756,-0.424079,-0.130251,-0.045915,0.001856,0.055317
1722050330.0971,2024-07-26 20:18:50.097,7,false,0.444315,-0.302246,0.584595,0.607849,0.876967,-0.418708,-0.124392,-0.045926,0.001829,0.055388
1722050330.1284,2024-07-26 20:18:50.128,8,false,0.444402,-0.302246,0.584656,0.607727,0.881849,-0.447028,-0.126833,-0.045984,0.001793,0.055379
1722050330.1596,2024-07-26 20:18:50.159,9,false,0.44444,-0.302185,0.584595,0.607788,0.881849,-0.447028,-0.126833,-0.04589,0.001809,0.055383
1722050330.1909,2024-07-26 20:18:50.190,10,false,0.444359,-0.302063,0.584656,0.607849,0.885267,-0.432868,-0.130739,-0.045903,0.001725,0.055326
1722050330.2221,2024-07-26 20:18:50.222,11,false,0.444402,-0.302246,0.584656,0.607727,0.890639,-0.441657,-0.125368,-0.045976,0.001773,0.055274
1722050330.2534,2024-07-26 20:18:50.253,12,false,0.444568,-0.302246,0.584656,0.607605,0.890639,-0.441657,-0.125368,-0.046042,0.001815,0.055228
1722050330.2846,2024-07-26 20:18:50.284,13,false,0.444649,-0.302368,0.584595,0.607544,0.87013,-0.442145,-0.120485,-0.045942,0.001829,0.055369
1722050330.3159,2024-07-26 20:18:50.315,14,false,0.444649,-0.30249,0.584595,0.607483,0.879408,-0.430915,-0.131716,-0.045925,0.001841,0.055314
1722050330.3471,2024-07-26 20:18:50.347,15,false,0.444736,-0.30249,0.584656,0.607361,0.879408,-0.430915,-0.131716,-0.045911,0.001853,0.055263
1722050330.3784,2024-07-26 20:18:50.378,16,false,0.444695,-0.302673,0.584656,0.6073,0.883314,-0.439704,-0.134646,-0.046007,0.001814,0.055206
1722050330.4096,2024-07-26 20:18:50.409,17,false,0.444439,-0.302795,0.584534,0.607544,0.881849,-0.444099,-0.131716,-0.046045,0.001913,0.055081
1722050330.4409,2024-07-26 20:18:50.440,18,false,0.444233,-0.302734,0.584595,0.607666,0.876967,-0.441657,-0.123415,-0.045969,0.001929,0.055041
1722050330.4721,2024-07-26 20:18:50.472,19,false,0.444445,-0.302673,0.584656,0.607483,0.885756,-0.447517,-0.135622,-0.045987,0.001944,0.055128
1722050330.5034,2024-07-26 20:18:50.503,20,false,0.444486,-0.30249,0.584656,0.607544,0.876967,-0.44361,-0.127321,-0.046002,0.00192,0.05506
1722050330.5346,2024-07-26 20:18:50.534,21,false,0.444685,-0.302673,0.584473,0.607483,0.876967,-0.44361,-0.127321,-0.04609,0.001997,0.055047
1722050330.5659,2024-07-26 20:18:50.565,22,false,0.444641,-0.302734,0.584412,0.607544,0.898939,-0.439216,-0.118044,-0.046034,0.00209,0.055097
1722050330.5971,2024-07-26 20:18:50.597,23,false,0.444721,-0.302856,0.584351,0.607483,0.880873,-0.42945,-0.136599,-0.046008,0.002077,0.055105
1722050330.6284,2024-07-26 20:18:50.628,24,false,0.444843,-0.302917,0.58429,0.607422,0.880873,-0.42945,-0.136599,-0.046022,0.002137,0.055246
1722050330.6596,2024-07-26 20:18:50.659,25,false,0.444965,-0.302979,0.584229,0.607361,0.868177,-0.427008,-0.120485,-0.045961,0.002119,0.055239
1722050330.6909,2024-07-26 20:18:50.690,26,false,0.445045,-0.302979,0.584167,0.607361,0.886244,-0.43238,-0.124392,-0.046052,0.0022,0.055209
1722050330.7221,2024-07-26 20:18:50.722,27,false,0.44509,-0.30304,0.584229,0.607239,0.886244,-0.43238,-0.124392,-0.046135,0.002273,0.055181
1722050330.7534,2024-07-26 20:18:50.753,28,false,0.445135,-0.303223,0.58429,0.607056,0.890639,-0.433845,-0.12781,-0.046172,0.002278,0.055217
1722050330.7846,2024-07-26 20:18:50.784,29,false,0.445045,-0.302979,0.584167,0.607361,0.890639,-0.433845,-0.12781,-0.046145,0.002282,0.055286
1722050330.8159,2024-07-26 20:18:50.815,30,false,0.445257,-0.303406,0.584229,0.606934,0.888685,-0.443122,-0.12781,-0.045998,0.002139,0.055312
1722050330.8471,2024-07-26 20:18:50.847,31,false,0.445052,-0.303589,0.58429,0.606934,0.881849,-0.433356,-0.12781,-0.046049,0.001974,0.055372
1722050330.8784,2024-07-26 20:18:50.878,0,false,0.445093,-0.303528,0.58429,0.606934,0.881849,-0.433356,-0.12781,-0.046095,0.001825,0.055425
1722050330.9096,2024-07-26 20:18:50.909,1,false,0.445058,-0.303467,0.584412,0.606873,0.875013,-0.438239,-0.133181,-0.046222,0.00196,0.055547
1722050330.9409,2024-07-26 20:18:50.940,2,false,0.444984,-0.303467,0.584595,0.60675,0.872572,-0.435798,-0.138552,-0.046178,0.001923,0.055595
1722050330.9721,2024-07-26 20:18:50.972,3,false,0.445026,-0.303528,0.584595,0.606689,0.872572,-0.435798,-0.138552,-0.046138,0.001889,0.055639
1722050331.0034,2024-07-26 20:18:51.003,4,false,0.445147,-0.303711,0.584534,0.606567,0.87599,-0.431403,-0.133181,-0.046077,0.001749,0.055629
1722050331.0346,2024-07-26 20:18:51.034,5,false,0.445186,-0.303894,0.584473,0.606506,0.869154,-0.427497,-0.134646,-0.046047,0.00177,0.055645
1722050331.0659,2024-07-26 20:18:51.065,6,false,0.445227,-0.303833,0.584473,0.606506,0.869154,-0.427497,-0.134646,-0.04602,0.001788,0.055659
1722050331.0971,2024-07-26 20:18:51.097,7,false,0.445269,-0.303894,0.584473,0.606445,0.886244,-0.42945,-0.132692,-0.045971,0.001756,0.05577
1722050331.1284,2024-07-26 20:18:51.128,8,false,0.445352,-0.303894,0.584473,0.606384,0.882338,-0.437263,-0.128298,-0.045976,0.001836,0.055735
1722050331.1596,2024-07-26 20:18:51.159,9,false,0.445189,-0.303772,0.584534,0.606506,0.882338,-0.437263,-0.128298,-0.045981,0.001909,0.055703
1722050331.1909,2024-07-26 20:18:51.190,10,false,0.444993,-0.303711,0.584778,0.606445,0.882338,-0.437263,-0.128298,-0.045985,0.001975,0.055675
1722050331.2221,2024-07-26 20:18:51.222,11,false,0.444996,-0.303711,0.584839,0.606384,0.890639,-0.435309,-0.125368,-0.046037,0.001985,0.055662
1722050331.2534,2024-07-26 20:18:51.253,12,false,0.445118,-0.303772,0.584778,0.606323,0.890639,-0.447028,-0.137575,-0.045963,0.001957,0.05554
1722050331.2846,2024-07-26 20:18:51.284,13,false,0.445031,-0.303894,0.584717,0.606384,0.890639,-0.447028,-0.137575,-0.045895,0.001932,0.055431
1722050331.3159,2024-07-26 20:18:51.315,14,false,0.44507,-0.303955,0.584656,0.606384,0.87892,-0.434821,-0.134646,-0.045908,0.001959,0.05543
1722050331.3471,2024-07-26 20:18:51.347,15,false,0.444986,-0.304077,0.584656,0.606384,0.884291,-0.433845,-0.128786,-0.04587,0.001848,0.055502
1722050331.3784,2024-07-26 20:18:51.378,16,false,0.445072,-0.304077,0.584717,0.606262,0.884291,-0.433845,-0.128786,-0.045837,0.001749,0.055567
1722050331.4096,2024-07-26 20:18:51.409,17,false,0.445235,-0.304199,0.584656,0.60614,0.889174,-0.433845,-0.130739,-0.045867,0.001721,0.055504
1722050331.4409,2024-07-26 20:18:51.440,18,false,0.445405,-0.304077,0.584717,0.606018,0.876478,-0.42945,-0.133669,-0.045883,0.001768,0.055471
1722050331.4721,2024-07-26 20:18:51.472,19,false,0.44553,-0.304016,0.584717,0.605957,0.876478,-0.42945,-0.133669,-0.045835,0.001872,0.055551
1722050331.5034,2024-07-26 20:18:51.503,20,false,0.445532,-0.304138,0.584778,0.605835,0.887221,-0.421149,-0.130251,-0.04583,0.001758,0.055477
1722050331.5346,2024-07-26 20:18:51.534,21,false,0.445855,-0.30426,0.584595,0.605713,0.888197,-0.427497,-0.132204,-0.045861,0.001851,0.055398
1722050331.5659,2024-07-26 20:18:51.565,22,false,0.44553,-0.304016,0.584717,0.605957,0.889174,-0.433845,-0.130739,-0.045926,0.001873,0.055388
1722050331.5971,2024-07-26 20:18:51.597,23,false,0.446059,-0.304321,0.584534,0.605591,0.87599,-0.43238,-0.126345,-0.046021,0.001857,0.055343
1722050331.6284,2024-07-26 20:18:51.628,24,false,0.446056,-0.304321,0.584473,0.605652,0.874525,-0.436774,-0.12488,-0.046021,0.001891,0.055326
1722050331.6596,2024-07-26 20:18:51.659,25,false,0.446059,-0.304321,0.584534,0.605591,0.883314,-0.431403,-0.133181,-0.045899,0.001922,0.055336
1722050331.6909,2024-07-26 20:18:51.690,26,false,0.445982,-0.304199,0.584656,0.605591,0.883314,-0.431403,-0.133181,-0.045789,0.001949,0.055344
1722050331.7221,2024-07-26 20:18:51.722,27,false,0.446027,-0.304138,0.584717,0.60553,0.871107,-0.425055,-0.128786,-0.045861,0.001901,0.055364
1722050331.7534,2024-07-26 20:18:51.753,28,false,0.446024,-0.304138,0.584656,0.605591,0.887221,-0.430426,-0.125856,-0.045914,0.001906,0.05537
1722050331.7846,2024-07-26 20:18:51.784,29,false,0.446021,-0.304138,0.584595,0.605652,0.887221,-0.430426,-0.125856,-0.045863,0.001874,0.055289
1722050331.8159,2024-07-26 20:18:51.815,30,false,0.446107,-0.304016,0.584656,0.605591,0.893568,-0.433356,-0.126345,-0.045782,0.002004,0.055241
1722050331.8471,2024-07-26 20:18:51.847,31,false,0.446066,-0.303955,0.584656,0.605652,0.877455,-0.435309,-0.132204,-0.045757,0.002097,0.055272
1722050331.8784,2024-07-26 20:18:51.878,0,false,0.446022,-0.303894,0.584595,0.605774,0.877455,-0.435309,-0.132204,-0.045734,0.00218,0.055299
1722050331.9096,2024-07-26 20:18:51.909,1,false,0.445625,-0.303406,0.584961,0.605957,0.877455,-0.435309,-0.132204,-0.045653,0.002194,0.055238
1722050331.9409,2024-07-26 20:18:51.940,2,false,0.445625,-0.303406,0.584961,0.605957,0.874037,-0.450446,-0.128298,-0.045727,0.002231,0.055256
1722050331.9721,2024-07-26 20:18:51.972,3,false,0.445667,-0.303467,0.584961,0.605896,0.881849,-0.444587,-0.135134,-0.045793,0.002264,0.055211
1722050332.0034,2024-07-26 20:18:52.003,4,false,0.445747,-0.303345,0.5849,0.605957,0.881849,-0.444587,-0.135134,-0.045852,0.002294,0.055171
1722050332.0346,2024-07-26 20:18:52.034,5,false,0.445661,-0.303345,0.584839,0.606079,0.884291,-0.425544,-0.122438,-0.045881,0.002211,0.055208
1722050332.0659,2024-07-26 20:18:52.065,6,false,0.445785,-0.303284,0.584839,0.606018,0.883803,-0.441657,-0.122927,-0.045895,0.002149,0.055266
1722050332.0971,2024-07-26 20:18:52.097,7,false,0.445863,-0.303284,0.584717,0.606079,0.883803,-0.441657,-0.122927,-0.045908,0.002093,0.055318
1722050332.1284,2024-07-26 20:18:52.128,8,false,0.445945,-0.303284,0.584717,0.606018,0.884291,-0.439216,-0.120485,-0.046053,0.002018,0.05539
1722050332.1596,2024-07-26 20:18:52.159,9,false,0.445821,-0.303223,0.584717,0.60614,0.890639,-0.427497,-0.132204,-0.046087,0.001852,0.055307
